onset	duration	trial_type	accuracy	response_time	prime_stim	target_stim
0.0	4.0	2.0	0.0	0.604	post	cost
4.0	3.0	5.0	1.0	0.479	n/a	/BLUEbox.bmp
7.0	4.399999999999999	6.0	1.0	0.782	task-Rhyming/perceptual_o.bmp	task-Rhyming/perceptual_p.bmp
11.399999999999999	4.0	3.0	1.0	0.526	rum	numb
15.399999999999999	3.8000000000000043	5.0	1.0	0.379	n/a	/BLUEbox.bmp
19.200000000000003	4.0	6.0	1.0	0.634	task-Rhyming/perceptual_c.bmp	task-Rhyming/perceptual_u.bmp
23.200000000000003	4.0	1.0	1.0	0.508	fought	sought
27.200000000000003	3.999999999999993	1.0	1.0	0.665	scheme	theme
31.199999999999996	4.0	6.0	0.0	0.532	task-Rhyming/perceptual_m.bmp	task-Rhyming/perceptual_n.bmp
35.199999999999996	4.400000000000006	1.0	1.0	0.693	stool	fool
39.6	3.4000000000000057	5.0	1.0	0.454	n/a	/BLUEbox.bmp
43.00000000000001	4.3999999999999915	1.0	1.0	0.572	soak	oak
47.4	4.400000000000006	2.0	1.0	0.686	threat	wheat
51.800000000000004	4.0	1.0	1.0	0.619	thread	spread
55.800000000000004	4.3999999999999915	3.0	1.0	0.569	pile	trial
60.199999999999996	4.800000000000004	4.0	1.0	0.71	swap	watch
65.0	3.8000000000000114	5.0	1.0	0.396	n/a	/BLUEbox.bmp
68.80000000000001	3.3999999999999773	5.0	1.0	0.577	n/a	/BLUEbox.bmp
72.19999999999999	4.400000000000006	4.0	1.0	0.554	tough	dull
76.6	4.800000000000011	6.0	1.0	0.561	task-Rhyming/perceptual_w.bmp	task-Rhyming/perceptual_e.bmp
81.4	4.799999999999983	1.0	1.0	0.453	sweep	creep
86.19999999999999	4.800000000000011	6.0	1.0	0.64	task-Rhyming/perceptual_k.bmp	task-Rhyming/perceptual_t.bmp
91.0	3.4000000000000057	5.0	1.0	0.388	n/a	/BLUEbox.bmp
94.4	3.4000000000000057	3.0	1.0	0.515	stroke	soak
97.80000000000001	4.400000000000006	4.0	1.0	0.627	trial	fall
102.20000000000002	4.799999999999983	6.0	0.0	0.972	task-Rhyming/perceptual_k.bmp	task-Rhyming/perceptual_l.bmp
107.0	3.0	5.0	1.0	0.632	n/a	/BLUEbox.bmp
110.0	3.4000000000000057	5.0	1.0	0.581	n/a	/BLUEbox.bmp
113.4	3.4000000000000057	5.0	1.0	0.516	n/a	/BLUEbox.bmp
116.80000000000001	3.4000000000000057	5.0	1.0	0.602	n/a	/BLUEbox.bmp
120.20000000000002	3.9989999999999952	1.0	1.0	0.563	beef	reef
124.19900000000001	3.0	5.0	1.0	0.781	n/a	/BLUEbox.bmp
127.19900000000001	4.799999999999983	2.0	1.0	0.661	wart	smart
131.999	4.800000000000011	2.0	0.0	0.743	dose	pose
136.799	3.4000000000000057	5.0	1.0	0.611	n/a	/BLUEbox.bmp
140.199	4.0	2.0	1.0	0.651	touch	couch
144.199	4.0	6.0	1.0	0.575	task-Rhyming/perceptual_v.bmp	task-Rhyming/perceptual_m.bmp
148.199	3.799999999999983	5.0	1.0	0.631	n/a	/BLUEbox.bmp
151.999	3.8000000000000114	5.0	1.0	0.505	n/a	/BLUEbox.bmp
155.799	3.4000000000000057	5.0	1.0	0.43	n/a	/BLUEbox.bmp
159.199	3.0	5.0	1.0	0.455	n/a	/BLUEbox.bmp
162.199	3.799999999999983	5.0	1.0	0.349	n/a	/BLUEbox.bmp
165.999	4.400000000000006	4.0	1.0	0.72	port	warm
170.399	4.800000000000011	3.0	1.0	0.678	june	noon
175.199	4.400000000000006	4.0	1.0	0.445	wreath	leap
179.59900000000002	3.0	5.0	1.0	0.665	n/a	/BLUEbox.bmp
182.59900000000002	4.399999999999977	6.0	1.0	0.738	task-Rhyming/perceptual_c.bmp	task-Rhyming/perceptual_d.bmp
186.999	4.400000000000006	2.0	1.0	0.742	glove	stove
191.399	4.800000000000011	1.0	1.0	0.564	numb	crumb
196.199	4.799999999999983	2.0	1.0	0.764	stood	flood
200.999	4.400000000000006	6.0	1.0	0.801	task-Rhyming/perceptual_i.bmp	task-Rhyming/perceptual_j.bmp
205.399	4.800000000000011	4.0	1.0	0.753	smart	drought
210.199	4.400000000000006	3.0	1.0	0.797	stir	blur
214.59900000000002	3.3999999999999773	5.0	1.0	0.578	n/a	/BLUEbox.bmp
217.999	3.8000000000000114	5.0	1.0	0.464	n/a	/BLUEbox.bmp
221.799	4.800000000000011	2.0	1.0	0.716	pool	wool
226.59900000000002	3.0	5.0	1.0	0.373	n/a	/BLUEbox.bmp
229.59900000000002	3.3999999999999773	5.0	1.0	0.332	n/a	/BLUEbox.bmp
232.999	4.400000000000034	2.0	1.0	0.682	fought	drought
237.39900000000003	4.0	3.0	1.0	0.623	flight	spite
241.39900000000003	4.399999999999977	3.0	1.0	0.596	scheme	cream
245.799	4.0	6.0	1.0	0.489	task-Rhyming/perceptual_z.bmp	task-Rhyming/perceptual_g.bmp
249.799	4.800000000000011	4.0	1.0	0.73	ghost	pose
254.59900000000002	3.399999999999949	5.0	1.0	0.491	n/a	/BLUEbox.bmp
257.99899999999997	4.0	4.0	1.0	0.67	grace	fence
261.99899999999997	4.0	4.0	1.0	0.777	dried	stood
265.99899999999997	4.0	4.0	0.0	0.893	ford	rod
269.99899999999997	4.400000000000034	1.0	1.0	0.703	strap	gap
274.399	4.7999999999999545	6.0	1.0	0.903	task-Rhyming/perceptual_e.bmp	task-Rhyming/perceptual_f.bmp
279.19899999999996	2.9990000000000236	5.0	1.0	0.485	n/a	/BLUEbox.bmp
282.198	4.0	4.0	0.0	0.782	gross	post
286.198	4.0	4.0	1.0	1.048	fault	note
290.198	4.800000000000011	1.0	1.0	0.769	bull	full
294.998	4.800000000000011	3.0	1.0	0.782	chase	grace
299.798	4.0	3.0	1.0	0.853	float	note
303.798	4.7999999999999545	3.0	0.0	1.034	bride	dried
308.59799999999996	4.800000000000011	4.0	1.0	1.443	thief	plead
313.39799999999997	4.400000000000034	1.0	0.0	1.165	bluff	puff
317.798	4.7999999999999545	6.0	1.0	0.514	task-Rhyming/perceptual_v.bmp	task-Rhyming/perceptual_w.bmp
322.59799999999996	4.800000000000011	1.0	1.0	1.208	shove	glove
327.39799999999997	4.400000000000034	6.0	0.0	0.892	task-Rhyming/perceptual_y.bmp	task-Rhyming/perceptual_o.bmp
331.798	4.7999999999999545	2.0	1.0	0.852	stamp	swamp
336.59799999999996	4.400000000000034	4.0	1.0	0.679	stamp	tomb
340.998	3.0	5.0	1.0	0.657	n/a	/BLUEbox.bmp
343.998	22.0	n/a	n/a	n/a	n/a	/REDbox.bmp
