onset	duration	trial_type	accuracy	response_time	prime_stim	target_stim
0.0	3.9979999999999976	2.0	0.0	0.523	post	cost
3.9979999999999976	2.9990000000000023	5.0	1.0	0.545	n/a	/BLUEbox.bmp
6.997	4.398000000000003	6.0	1.0	1.477	task-Rhyming/perceptual_o.bmp	task-Rhyming/perceptual_p.bmp
11.395000000000003	3.9979999999999976	3.0	1.0	1.112	rum	numb
15.393	3.798000000000002	5.0	1.0	0.554	n/a	/BLUEbox.bmp
19.191000000000003	3.9979999999999976	6.0	1.0	0.632	task-Rhyming/perceptual_c.bmp	task-Rhyming/perceptual_u.bmp
23.189	3.9990000000000023	1.0	1.0	0.461	fought	sought
27.188000000000002	3.9979999999999976	1.0	1.0	0.604	scheme	theme
31.186	3.9980000000000047	6.0	1.0	1.258	task-Rhyming/perceptual_m.bmp	task-Rhyming/perceptual_n.bmp
35.184000000000005	4.397999999999996	1.0	1.0	0.412	stool	fool
39.582	3.397999999999996	5.0	1.0	0.467	n/a	/BLUEbox.bmp
42.98	4.397999999999996	1.0	1.0	0.454	soak	oak
47.37799999999999	4.39800000000001	2.0	1.0	0.908	threat	wheat
51.776	3.9989999999999952	1.0	1.0	0.78	thread	spread
55.775	4.397999999999996	3.0	1.0	1.35	pile	trial
60.172999999999995	4.797000000000004	4.0	1.0	1.178	swap	watch
64.97	3.7990000000000066	5.0	1.0	0.562	n/a	/BLUEbox.bmp
68.769	3.397999999999996	5.0	1.0	0.526	n/a	/BLUEbox.bmp
72.167	4.397999999999996	4.0	1.0	0.846	tough	dull
76.565	4.798000000000002	6.0	1.0	0.915	task-Rhyming/perceptual_w.bmp	task-Rhyming/perceptual_e.bmp
81.363	4.798000000000002	1.0	1.0	0.661	sweep	creep
86.161	4.796999999999997	6.0	1.0	1.277	task-Rhyming/perceptual_k.bmp	task-Rhyming/perceptual_t.bmp
90.958	3.399000000000001	5.0	1.0	0.558	n/a	/BLUEbox.bmp
94.357	3.397999999999996	3.0	1.0	0.602	stroke	soak
97.755	4.398000000000025	4.0	1.0	0.676	trial	fall
102.15300000000002	4.797999999999973	6.0	1.0	0.56	task-Rhyming/perceptual_k.bmp	task-Rhyming/perceptual_l.bmp
106.951	2.9990000000000236	5.0	1.0	0.586	n/a	/BLUEbox.bmp
109.95000000000002	3.397999999999996	5.0	1.0	0.515	n/a	/BLUEbox.bmp
113.34800000000001	3.399000000000001	5.0	1.0	0.505	n/a	/BLUEbox.bmp
116.74700000000001	3.397999999999996	5.0	1.0	0.556	n/a	/BLUEbox.bmp
120.14500000000001	3.9979999999999905	1.0	1.0	0.434	beef	reef
124.143	2.9989999999999952	5.0	1.0	0.497	n/a	/BLUEbox.bmp
127.142	4.798000000000002	2.0	1.0	0.94	wart	smart
131.94	4.796999999999997	2.0	0.0	0.562	dose	pose
136.737	3.399000000000001	5.0	1.0	0.479	n/a	/BLUEbox.bmp
140.136	3.998000000000019	2.0	0.0	0.568	touch	couch
144.13400000000001	3.9979999999999905	6.0	0.0	0.775	task-Rhyming/perceptual_v.bmp	task-Rhyming/perceptual_m.bmp
148.132	3.7990000000000066	5.0	1.0	0.474	n/a	/BLUEbox.bmp
151.931	3.798000000000002	5.0	1.0	0.507	n/a	/BLUEbox.bmp
155.729	3.397999999999996	5.0	1.0	0.548	n/a	/BLUEbox.bmp
159.127	2.9989999999999952	5.0	1.0	0.536	n/a	/BLUEbox.bmp
162.126	3.798000000000002	5.0	1.0	0.361	n/a	/BLUEbox.bmp
165.924	4.397999999999996	4.0	1.0	0.785	port	warm
170.322	4.798000000000002	3.0	1.0	0.788	june	noon
175.12	4.397999999999996	4.0	1.0	0.662	wreath	leap
179.518	2.9989999999999952	5.0	1.0	0.556	n/a	/BLUEbox.bmp
182.517	4.398000000000025	6.0	1.0	0.94	task-Rhyming/perceptual_c.bmp	task-Rhyming/perceptual_d.bmp
186.91500000000002	4.397999999999996	2.0	1.0	0.804	glove	stove
191.31300000000002	4.796999999999997	1.0	1.0	0.695	numb	crumb
196.11	4.798000000000002	2.0	1.0	0.871	stood	flood
200.90800000000002	4.397999999999996	6.0	0.0	1.002	task-Rhyming/perceptual_i.bmp	task-Rhyming/perceptual_j.bmp
205.306	4.798000000000002	4.0	1.0	0.741	smart	drought
210.104	4.397999999999996	3.0	1.0	0.696	stir	blur
214.502	3.397999999999996	5.0	1.0	0.607	n/a	/BLUEbox.bmp
217.9	3.7990000000000066	5.0	1.0	0.548	n/a	/BLUEbox.bmp
221.699	4.796999999999997	2.0	0.0	0.683	pool	wool
226.496	2.9990000000000236	5.0	1.0	0.502	n/a	/BLUEbox.bmp
229.49500000000003	3.3979999999999677	5.0	1.0	0.456	n/a	/BLUEbox.bmp
232.893	4.398000000000025	2.0	1.0	0.847	fought	drought
237.29100000000003	3.998999999999967	3.0	1.0	0.66	flight	spite
241.29	4.398000000000025	3.0	1.0	1.104	scheme	cream
245.68800000000002	3.9979999999999905	6.0	1.0	0.777	task-Rhyming/perceptual_z.bmp	task-Rhyming/perceptual_g.bmp
249.686	4.798000000000002	4.0	1.0	1.169	ghost	pose
254.484	3.397999999999996	5.0	1.0	0.813	n/a	/BLUEbox.bmp
257.882	3.9979999999999905	4.0	1.0	0.662	grace	fence
261.88	3.9979999999999905	4.0	1.0	0.671	dried	stood
265.878	3.998999999999967	4.0	1.0	0.751	ford	rod
269.87699999999995	4.398000000000025	1.0	1.0	0.72	strap	gap
274.275	4.7970000000000255	6.0	1.0	0.694	task-Rhyming/perceptual_e.bmp	task-Rhyming/perceptual_f.bmp
279.072	2.998999999999967	5.0	1.0	0.468	n/a	/BLUEbox.bmp
282.07099999999997	3.9979999999999905	4.0	0.0	1.493	gross	post
286.06899999999996	3.9979999999999905	4.0	1.0	0.697	fault	note
290.06699999999995	4.798000000000002	1.0	1.0	0.528	bull	full
294.86499999999995	4.798000000000002	3.0	1.0	0.687	chase	grace
299.66299999999995	3.9980000000000473	3.0	1.0	1.565	float	note
303.661	4.798000000000002	3.0	1.0	0.862	bride	dried
308.459	4.798000000000002	4.0	1.0	0.698	thief	plead
313.257	4.397999999999968	1.0	1.0	0.57	bluff	puff
317.655	4.7970000000000255	6.0	1.0	0.715	task-Rhyming/perceptual_v.bmp	task-Rhyming/perceptual_w.bmp
322.452	4.798000000000002	1.0	1.0	0.682	shove	glove
327.25	4.397999999999968	6.0	1.0	1.132	task-Rhyming/perceptual_y.bmp	task-Rhyming/perceptual_o.bmp
331.64799999999997	4.798000000000002	2.0	1.0	0.786	stamp	swamp
336.44599999999997	4.398000000000025	4.0	1.0	0.636	stamp	tomb
340.844	3.0	5.0	1.0	0.609	n/a	/BLUEbox.bmp
343.844	22.0	n/a	n/a	n/a	n/a	/REDbox.bmp
