onset	duration	trial_type	accuracy	response_time	prime_stim	target_stim
0.0	3.998000000000001	easy	1.0	0.917	task-Num/dot3_36-59.bmp	task-Num/dot3_12-35.bmp
3.998000000000001	4.798000000000002	medium	1.0	0.859	task-Num/dot3_18-24.bmp	task-Num/dot3_36-72.bmp
8.796000000000003	3.9979999999999976	easy	1.0	0.915	task-Num/dot3_36-55.bmp	task-Num/dot3_12-31.bmp
12.794	3.9979999999999976	hard	1.0	0.873	task-Num/dot3_24-22.bmp	task-Num/dot3_36-94.bmp
16.791999999999998	3.7989999999999995	control	1.0	0.706	n/a	/BLUEbox.bmp
20.590999999999998	2.9980000000000047	control	1.0	0.464	n/a	/BLUEbox.bmp
23.589000000000002	4.797999999999995	easy	1.0	0.716	task-Num/dot3_36-57.bmp	task-Num/dot3_12-33.bmp
28.386999999999997	4.798000000000005	hard	1.0	0.835	task-Num/dot3_36-107.bmp	task-Num/dot3_24-35.bmp
33.185	3.9979999999999905	medium	1.0	0.671	task-Num/dot3_18-22.bmp	task-Num/dot3_36-70.bmp
37.18299999999999	3.9980000000000047	medium	0.0	1.076	task-Num/dot3_18-21.bmp	task-Num/dot3_36-69.bmp
41.181	4.798000000000002	hard	1.0	0.951	task-Num/dot3_36-106.bmp	task-Num/dot3_24-34.bmp
45.979	4.798000000000002	medium	1.0	0.688	task-Num/dot3_18-19.bmp	task-Num/dot3_36-67.bmp
50.777	3.9979999999999905	medium	1.0	0.545	task-Num/dot3_36-84.bmp	task-Num/dot3_18-36.bmp
54.77499999999999	3.3980000000000103	control	1.0	0.543	n/a	/BLUEbox.bmp
58.173	3.9979999999999905	hard	1.0	1.586	task-Num/dot3_36-105.bmp	task-Num/dot3_24-33.bmp
62.17099999999999	3.9980000000000047	easy	1.0	0.571	task-Num/dot3_12-22.bmp	task-Num/dot3_36-46.bmp
66.169	4.798000000000002	easy	1.0	0.585	task-Num/dot3_12-23.bmp	task-Num/dot3_36-47.bmp
70.967	3.798000000000002	control	1.0	0.508	n/a	/BLUEbox.bmp
74.765	4.397999999999996	medium	1.0	0.539	task-Num/dot3_18-20.bmp	task-Num/dot3_36-68.bmp
79.163	4.798000000000002	easy	1.0	0.822	task-Num/dot3_36-60.bmp	task-Num/dot3_12-36.bmp
83.961	3.9980000000000047	easy	1.0	0.594	task-Num/dot3_12-21.bmp	task-Num/dot3_36-45.bmp
87.959	3.9979999999999905	hard	0.0	0.981	task-Num/dot3_24-24.bmp	task-Num/dot3_36-96.bmp
91.957	3.9990000000000094	hard	1.0	0.814	task-Num/dot3_24-23.bmp	task-Num/dot3_36-95.bmp
95.956	2.9979999999999905	control	1.0	0.652	n/a	/BLUEbox.bmp
98.954	4.39800000000001	hard	1.0	0.903	task-Num/dot3_36-104.bmp	task-Num/dot3_24-32.bmp
103.352	4.798000000000002	medium	1.0	0.858	task-Num/dot3_36-80.bmp	task-Num/dot3_18-32.bmp
108.15	2.9979999999999905	control	1.0	0.664	n/a	/BLUEbox.bmp
111.148	4.397999999999996	easy	1.0	0.549	task-Num/dot3_12-20.bmp	task-Num/dot3_36-44.bmp
115.54599999999999	3.9989999999999952	medium	0.0	1.029	task-Num/dot3_36-79.bmp	task-Num/dot3_18-31.bmp
119.54499999999999	4.796999999999997	easy	0.0	0.504	task-Num/dot3_12-19.bmp	task-Num/dot3_36-43.bmp
124.34199999999998	4.398000000000025	medium	1.0	0.713	task-Num/dot3_18-23.bmp	task-Num/dot3_36-71.bmp
128.74	4.797999999999973	medium	1.0	1.01	task-Num/dot3_36-82.bmp	task-Num/dot3_18-34.bmp
133.53799999999998	3.798000000000002	control	1.0	0.733	n/a	/BLUEbox.bmp
137.33599999999998	4.798000000000002	hard	1.0	1.254	task-Num/dot3_36-108.bmp	task-Num/dot3_24-36.bmp
142.134	4.398000000000025	hard	1.0	0.894	task-Num/dot3_24-20.bmp	task-Num/dot3_36-92.bmp
146.532	4.397999999999996	easy	1.0	0.747	task-Num/dot3_36-58.bmp	task-Num/dot3_12-34.bmp
150.93	4.397999999999996	easy	1.0	0.601	task-Num/dot3_12-24.bmp	task-Num/dot3_36-48.bmp
155.328	3.397999999999996	control	1.0	0.685	n/a	/BLUEbox.bmp
158.726	4.397999999999996	hard	1.0	0.5	task-Num/dot3_24-21.bmp	task-Num/dot3_36-93.bmp
163.124	4.798000000000002	easy	1.0	0.595	task-Num/dot3_36-56.bmp	task-Num/dot3_12-32.bmp
167.922	3.397999999999996	control	1.0	0.551	n/a	/BLUEbox.bmp
171.32	4.397999999999996	medium	1.0	1.071	task-Num/dot3_36-81.bmp	task-Num/dot3_18-33.bmp
175.718	3.399000000000001	control	1.0	0.744	n/a	/BLUEbox.bmp
179.117	3.397999999999996	control	1.0	0.606	n/a	/BLUEbox.bmp
182.515	3.798000000000002	control	1.0	0.361	n/a	/BLUEbox.bmp
186.313	4.397999999999996	hard	1.0	0.952	task-Num/dot3_24-19.bmp	task-Num/dot3_36-91.bmp
190.71099999999998	4.798000000000002	hard	0.0	1.211	task-Num/dot3_36-103.bmp	task-Num/dot3_24-31.bmp
195.509	4.399000000000001	medium	1.0	1.297	task-Num/dot3_36-83.bmp	task-Num/dot3_18-35.bmp
199.908	22.0	n/a	n/a	n/a	n/a	/REDbox.bmp
