onset	duration	trial_type	accuracy	response_time	prime_stim	target_stim
0.0	4.0	2.0	1.0	0.643	post	cost
4.0	3.0	5.0	1.0	0.82	n/a	/BLUEbox.bmp
7.0	4.400000000000006	6.0	1.0	0.943	task-Rhyming/perceptual_o.bmp	task-Rhyming/perceptual_p.bmp
11.400000000000006	4.0	3.0	1.0	0.9	rum	numb
15.400000000000006	3.799999999999997	5.0	1.0	0.919	n/a	/BLUEbox.bmp
19.200000000000003	4.0	6.0	1.0	0.571	task-Rhyming/perceptual_c.bmp	task-Rhyming/perceptual_u.bmp
23.200000000000003	4.0	1.0	1.0	0.71	fought	sought
27.200000000000003	4.000000000000007	1.0	1.0	1.046	scheme	theme
31.20000000000001	4.0	6.0	1.0	0.519	task-Rhyming/perceptual_m.bmp	task-Rhyming/perceptual_n.bmp
35.20000000000001	4.398999999999987	1.0	1.0	0.687	stool	fool
39.599	3.4000000000000057	5.0	1.0	0.831	n/a	/BLUEbox.bmp
42.999	4.400000000000006	1.0	1.0	0.997	soak	oak
47.39900000000001	4.3999999999999915	2.0	1.0	1.754	threat	wheat
51.799	4.0	1.0	1.0	1.603	thread	spread
55.799	4.400000000000006	3.0	1.0	1.165	pile	trial
60.199000000000005	4.79999999999999	4.0	1.0	0.491	swap	watch
64.999	3.8000000000000114	5.0	1.0	0.817	n/a	/BLUEbox.bmp
68.799	3.4000000000000057	5.0	1.0	1.659	n/a	/BLUEbox.bmp
72.19900000000001	4.399999999999977	4.0	1.0	1.296	tough	dull
76.59899999999999	4.800000000000011	6.0	1.0	0.792	task-Rhyming/perceptual_w.bmp	task-Rhyming/perceptual_e.bmp
81.399	4.800000000000011	1.0	1.0	1.201	sweep	creep
86.19900000000001	4.799999999999983	6.0	1.0	0.847	task-Rhyming/perceptual_k.bmp	task-Rhyming/perceptual_t.bmp
90.999	3.4000000000000057	5.0	1.0	0.84	n/a	/BLUEbox.bmp
94.399	3.4000000000000057	3.0	1.0	0.908	stroke	soak
97.799	4.399999999999977	4.0	1.0	0.822	trial	fall
102.19899999999998	4.800000000000011	6.0	1.0	1.143	task-Rhyming/perceptual_k.bmp	task-Rhyming/perceptual_l.bmp
106.999	3.0	5.0	1.0	0.684	n/a	/BLUEbox.bmp
109.999	3.4000000000000057	5.0	1.0	0.658	n/a	/BLUEbox.bmp
113.399	3.4000000000000057	5.0	1.0	0.597	n/a	/BLUEbox.bmp
116.799	3.3999999999999773	5.0	1.0	0.533	n/a	/BLUEbox.bmp
120.19899999999998	4.0	1.0	1.0	0.621	beef	reef
124.19899999999998	3.0	5.0	1.0	0.933	n/a	/BLUEbox.bmp
127.19899999999998	4.800000000000011	2.0	1.0	0.745	wart	smart
131.999	4.800000000000011	2.0	1.0	1.063	dose	pose
136.799	3.3999999999999773	5.0	1.0	0.806	n/a	/BLUEbox.bmp
140.19899999999998	4.0	2.0	1.0	0.847	touch	couch
144.19899999999998	4.0	6.0	1.0	1.742	task-Rhyming/perceptual_v.bmp	task-Rhyming/perceptual_m.bmp
148.19899999999998	3.8000000000000114	5.0	1.0	0.635	n/a	/BLUEbox.bmp
151.999	3.8000000000000114	5.0	1.0	0.51	n/a	/BLUEbox.bmp
155.799	3.3999999999999773	5.0	1.0	0.657	n/a	/BLUEbox.bmp
159.19899999999998	3.0	5.0	1.0	0.573	n/a	/BLUEbox.bmp
162.19899999999998	3.8000000000000114	5.0	1.0	0.56	n/a	/BLUEbox.bmp
165.999	4.400000000000006	4.0	1.0	0.584	port	warm
170.399	4.799999999999983	3.0	1.0	0.931	june	noon
175.19899999999998	4.400000000000006	4.0	1.0	0.932	wreath	leap
179.599	3.0	5.0	1.0	1.318	n/a	/BLUEbox.bmp
182.599	4.400000000000006	6.0	1.0	1.091	task-Rhyming/perceptual_c.bmp	task-Rhyming/perceptual_d.bmp
186.999	4.400000000000006	2.0	1.0	0.949	glove	stove
191.399	4.799000000000007	1.0	1.0	0.794	numb	crumb
196.198	4.799999999999983	2.0	1.0	0.976	stood	flood
200.998	4.400000000000006	6.0	1.0	1.151	task-Rhyming/perceptual_i.bmp	task-Rhyming/perceptual_j.bmp
205.398	4.800000000000011	4.0	1.0	1.01	smart	drought
210.198	4.399999999999977	3.0	1.0	1.378	stir	blur
214.59799999999998	3.4000000000000057	5.0	1.0	1.552	n/a	/BLUEbox.bmp
217.998	3.8000000000000114	5.0	1.0	0.561	n/a	/BLUEbox.bmp
221.798	4.800000000000011	2.0	1.0	1.183	pool	wool
226.598	3.0	5.0	1.0	0.905	n/a	/BLUEbox.bmp
229.598	3.3999999999999773	5.0	1.0	0.395	n/a	/BLUEbox.bmp
232.998	4.400000000000034	2.0	1.0	0.83	fought	drought
237.39800000000002	4.0	3.0	1.0	1.138	flight	spite
241.39800000000002	4.399999999999977	3.0	1.0	1.24	scheme	cream
245.798	4.0	6.0	1.0	0.737	task-Rhyming/perceptual_z.bmp	task-Rhyming/perceptual_g.bmp
249.798	4.800000000000011	4.0	1.0	1.074	ghost	pose
254.598	3.3999999999999773	5.0	1.0	0.658	n/a	/BLUEbox.bmp
257.998	4.0	4.0	1.0	0.588	grace	fence
261.998	4.0	4.0	1.0	0.898	dried	stood
265.998	4.0	4.0	1.0	0.967	ford	rod
269.998	4.400000000000034	1.0	1.0	1.202	strap	gap
274.398	4.7999999999999545	6.0	1.0	1.036	task-Rhyming/perceptual_e.bmp	task-Rhyming/perceptual_f.bmp
279.198	3.0	5.0	1.0	0.834	n/a	/BLUEbox.bmp
282.198	4.0	4.0	1.0	0.614	gross	post
286.198	4.0	4.0	1.0	0.63	fault	note
290.198	4.800000000000011	1.0	err	err	bull	full
294.998	4.800000000000011	3.0	1.0	1.601	chase	grace
299.798	4.0	3.0	1.0	0.691	float	note
303.798	4.800000000000011	3.0	1.0	0.706	bride	dried
308.598	4.800000000000011	4.0	1.0	0.782	thief	plead
313.398	4.399999999999977	1.0	1.0	0.938	bluff	puff
317.798	4.800000000000011	6.0	1.0	1.038	task-Rhyming/perceptual_v.bmp	task-Rhyming/perceptual_w.bmp
322.598	4.800000000000011	1.0	1.0	1.351	shove	glove
327.398	4.399999999999977	6.0	1.0	1.052	task-Rhyming/perceptual_y.bmp	task-Rhyming/perceptual_o.bmp
331.798	4.800000000000011	2.0	1.0	0.939	stamp	swamp
336.598	4.399999999999977	4.0	1.0	1.094	stamp	tomb
340.998	3.0	5.0	1.0	1.089	n/a	/BLUEbox.bmp
343.998	22.0	n/a	n/a	n/a	n/a	/REDbox.bmp
