onset	duration	trial_type	accuracy	response_time	prime_stim	target_stim
0.0	4.008000000000003	2.0	0.0	1.582	post	cost
4.008000000000003	3.0060000000000002	5.0	1.0	0.92	n/a	/BLUEbox.bmp
7.014000000000003	4.408999999999999	6.0	0.0	1.793	task-Rhyming/perceptual_o.bmp	task-Rhyming/perceptual_p.bmp
11.423000000000002	4.008000000000003	3.0	0.0	1.595	rum	numb
15.431000000000004	3.808	5.0	1.0	0.684	n/a	/BLUEbox.bmp
19.239000000000004	4.007999999999996	6.0	1.0	1.078	task-Rhyming/perceptual_c.bmp	task-Rhyming/perceptual_u.bmp
23.247	4.009	1.0	1.0	1.848	fought	sought
27.256	4.008000000000003	1.0	1.0	1.2	scheme	theme
31.264000000000003	4.008000000000003	6.0	1.0	1.211	task-Rhyming/perceptual_m.bmp	task-Rhyming/perceptual_n.bmp
35.272000000000006	4.408999999999992	1.0	1.0	1.254	stool	fool
39.681	3.4070000000000107	5.0	1.0	0.655	n/a	/BLUEbox.bmp
43.08800000000001	4.408999999999992	1.0	1.0	1.058	soak	oak
47.497	4.409000000000006	2.0	1.0	1.32	threat	wheat
51.906000000000006	4.009	1.0	1.0	1.084	thread	spread
55.915000000000006	4.408999999999992	3.0	0.0	1.084	pile	trial
60.324	4.8089999999999975	4.0	1.0	2.682	swap	watch
65.133	3.808000000000007	5.0	1.0	0.59	n/a	/BLUEbox.bmp
68.941	3.4069999999999965	5.0	1.0	0.636	n/a	/BLUEbox.bmp
72.348	4.409000000000006	4.0	1.0	1.502	tough	dull
76.757	4.810000000000002	6.0	1.0	1.389	task-Rhyming/perceptual_w.bmp	task-Rhyming/perceptual_e.bmp
81.56700000000001	4.809999999999988	1.0	0.0	1.838	sweep	creep
86.377	4.810000000000002	6.0	1.0	1.091	task-Rhyming/perceptual_k.bmp	task-Rhyming/perceptual_t.bmp
91.187	3.4070000000000107	5.0	1.0	0.708	n/a	/BLUEbox.bmp
94.59400000000001	3.4069999999999823	3.0	1.0	0.567	stroke	soak
98.00099999999999	4.40900000000002	4.0	1.0	0.925	trial	fall
102.41000000000001	4.810000000000002	6.0	1.0	1.229	task-Rhyming/perceptual_k.bmp	task-Rhyming/perceptual_l.bmp
107.22000000000001	3.0060000000000002	5.0	1.0	0.905	n/a	/BLUEbox.bmp
110.22600000000001	3.4069999999999823	5.0	1.0	0.577	n/a	/BLUEbox.bmp
113.633	3.4070000000000107	5.0	1.0	1.68	n/a	/BLUEbox.bmp
117.04	3.4069999999999823	5.0	1.0	1.631	n/a	/BLUEbox.bmp
120.44699999999999	4.00800000000001	1.0	1.0	1.343	beef	reef
124.455	3.0060000000000002	5.0	1.0	1.559	n/a	/BLUEbox.bmp
127.461	4.8100000000000165	2.0	1.0	1.123	wart	smart
132.27100000000002	4.810000000000002	2.0	1.0	1.995	dose	pose
137.08100000000002	3.4069999999999823	5.0	1.0	0.976	n/a	/BLUEbox.bmp
140.488	4.007999999999981	2.0	1.0	1.347	touch	couch
144.49599999999998	4.0090000000000146	6.0	1.0	1.553	task-Rhyming/perceptual_v.bmp	task-Rhyming/perceptual_m.bmp
148.505	3.8070000000000164	5.0	1.0	0.648	n/a	/BLUEbox.bmp
152.312	3.8079999999999927	5.0	1.0	1.281	n/a	/BLUEbox.bmp
156.12	3.4069999999999823	5.0	1.0	1.241	n/a	/BLUEbox.bmp
159.527	3.0060000000000286	5.0	1.0	1.28	n/a	/BLUEbox.bmp
162.53300000000002	3.8079999999999927	5.0	1.0	1.267	n/a	/BLUEbox.bmp
166.341	4.408999999999992	4.0	1.0	0.875	port	warm
170.75	4.810000000000002	3.0	1.0	1.086	june	noon
175.56	4.408999999999992	4.0	1.0	1.139	wreath	leap
179.969	3.0060000000000286	5.0	1.0	1.337	n/a	/BLUEbox.bmp
182.97500000000002	4.408999999999992	6.0	1.0	1.074	task-Rhyming/perceptual_c.bmp	task-Rhyming/perceptual_d.bmp
187.38400000000001	4.408999999999992	2.0	1.0	1.558	glove	stove
191.793	4.810000000000002	1.0	1.0	1.03	numb	crumb
196.603	4.810000000000002	2.0	1.0	1.009	stood	flood
201.413	4.408999999999992	6.0	1.0	0.995	task-Rhyming/perceptual_i.bmp	task-Rhyming/perceptual_j.bmp
205.822	4.810000000000002	4.0	1.0	1.159	smart	drought
210.632	4.408999999999992	3.0	0.0	1.308	stir	blur
215.041	3.4069999999999823	5.0	1.0	0.783	n/a	/BLUEbox.bmp
218.44799999999998	3.8080000000000496	5.0	1.0	1.646	n/a	/BLUEbox.bmp
222.25600000000003	4.809999999999945	2.0	0.0	1.039	pool	wool
227.06599999999997	3.0060000000000286	5.0	1.0	0.665	n/a	/BLUEbox.bmp
230.072	3.4069999999999823	5.0	1.0	1.329	n/a	/BLUEbox.bmp
233.47899999999998	4.408999999999992	2.0	0.0	1.113	fought	drought
237.88799999999998	4.008000000000038	3.0	0.0	0.889	flight	spite
241.89600000000002	4.408999999999992	3.0	1.0	0.948	scheme	cream
246.305	4.007999999999981	6.0	1.0	0.815	task-Rhyming/perceptual_z.bmp	task-Rhyming/perceptual_g.bmp
250.313	4.810000000000002	4.0	1.0	1.395	ghost	pose
255.123	3.4069999999999823	5.0	1.0	0.755	n/a	/BLUEbox.bmp
258.53	4.0090000000000146	4.0	1.0	1.334	grace	fence
262.539	4.007999999999981	4.0	1.0	1.633	dried	stood
266.54699999999997	4.008000000000038	4.0	1.0	1.341	ford	rod
270.555	4.408999999999992	1.0	0.0	0.798	strap	gap
274.964	4.810000000000002	6.0	0.0	0.801	task-Rhyming/perceptual_e.bmp	task-Rhyming/perceptual_f.bmp
279.774	3.005999999999972	5.0	1.0	0.688	n/a	/BLUEbox.bmp
282.78	4.008000000000038	4.0	1.0	1.206	gross	post
286.788	4.008999999999958	4.0	1.0	1.148	fault	note
290.79699999999997	4.809000000000026	1.0	1.0	1.133	bull	full
295.606	4.810000000000002	3.0	0.0	1.372	chase	grace
300.416	4.007999999999981	3.0	0.0	0.944	float	note
304.424	4.810000000000002	3.0	1.0	1.137	bride	dried
309.234	4.810000000000002	4.0	1.0	1.936	thief	plead
314.044	4.408999999999992	1.0	1.0	1.271	bluff	puff
318.453	4.810000000000002	6.0	1.0	1.21	task-Rhyming/perceptual_v.bmp	task-Rhyming/perceptual_w.bmp
323.263	4.810000000000002	1.0	1.0	1.191	shove	glove
328.073	4.408999999999992	6.0	0.0	1.248	task-Rhyming/perceptual_y.bmp	task-Rhyming/perceptual_o.bmp
332.48199999999997	4.810000000000002	2.0	1.0	1.032	stamp	swamp
337.292	4.408999999999992	4.0	1.0	0.905	stamp	tomb
341.70099999999996	3.0020000000000095	5.0	1.0	0.639	n/a	/BLUEbox.bmp
344.703	22.004999999999995	n/a	n/a	n/a	n/a	/REDbox.bmp
