onset	duration	trial_type	accuracy	response_time	prime_stim	target_stim
0.0	3.9979999999999976	2.0	0.0	1.146	post	cost
3.9979999999999976	2.9990000000000023	5.0	1.0	0.736	n/a	/BLUEbox.bmp
6.997	4.397999999999996	6.0	1.0	1.296	task-Rhyming/perceptual_o.bmp	task-Rhyming/perceptual_p.bmp
11.394999999999996	3.9980000000000047	3.0	1.0	1.166	rum	numb
15.393	3.798000000000002	5.0	1.0	0.945	n/a	/BLUEbox.bmp
19.191000000000003	3.9979999999999905	6.0	0.0	1.126	task-Rhyming/perceptual_c.bmp	task-Rhyming/perceptual_u.bmp
23.188999999999993	3.9980000000000047	1.0	1.0	1.43	fought	sought
27.186999999999998	3.9989999999999952	1.0	1.0	1.057	scheme	theme
31.185999999999993	3.9980000000000047	6.0	1.0	1.302	task-Rhyming/perceptual_m.bmp	task-Rhyming/perceptual_n.bmp
35.184	4.397999999999996	1.0	1.0	1.208	stool	fool
39.581999999999994	3.3980000000000103	5.0	1.0	0.913	n/a	/BLUEbox.bmp
42.980000000000004	4.397999999999996	1.0	1.0	1.095	soak	oak
47.378	4.397999999999996	2.0	1.0	1.606	threat	wheat
51.775999999999996	3.9980000000000047	1.0	1.0	0.832	thread	spread
55.774	4.397999999999996	3.0	1.0	1.104	pile	trial
60.172	4.798000000000002	4.0	1.0	0.925	swap	watch
64.97	3.798000000000002	5.0	1.0	0.792	n/a	/BLUEbox.bmp
68.768	3.397999999999996	5.0	1.0	0.62	n/a	/BLUEbox.bmp
72.166	4.397999999999996	4.0	1.0	1.345	tough	dull
76.564	4.798000000000002	6.0	1.0	1.287	task-Rhyming/perceptual_w.bmp	task-Rhyming/perceptual_e.bmp
81.362	4.798000000000016	1.0	1.0	1.226	sweep	creep
86.16000000000001	4.798000000000002	6.0	1.0	1.568	task-Rhyming/perceptual_k.bmp	task-Rhyming/perceptual_t.bmp
90.95800000000001	3.397999999999996	5.0	1.0	0.783	n/a	/BLUEbox.bmp
94.35600000000001	3.399000000000001	3.0	1.0	1.609	stroke	soak
97.75500000000001	4.396999999999991	4.0	0.0	1.626	trial	fall
102.152	4.798000000000002	6.0	1.0	1.319	task-Rhyming/perceptual_k.bmp	task-Rhyming/perceptual_l.bmp
106.95	2.9989999999999952	5.0	1.0	1.026	n/a	/BLUEbox.bmp
109.949	3.397999999999996	5.0	1.0	1.781	n/a	/BLUEbox.bmp
113.347	3.399000000000001	5.0	1.0	1.503	n/a	/BLUEbox.bmp
116.746	3.397999999999996	5.0	1.0	0.778	n/a	/BLUEbox.bmp
120.14399999999999	3.998000000000019	1.0	1.0	1.494	beef	reef
124.14200000000001	2.9989999999999952	5.0	1.0	1.752	n/a	/BLUEbox.bmp
127.141	4.798000000000016	2.0	1.0	1.219	wart	smart
131.93900000000002	4.796999999999969	2.0	0.0	0.997	dose	pose
136.736	3.399000000000001	5.0	1.0	1.024	n/a	/BLUEbox.bmp
140.135	3.9979999999999905	2.0	1.0	2.416	touch	couch
144.13299999999998	3.9979999999999905	6.0	1.0	1.235	task-Rhyming/perceptual_v.bmp	task-Rhyming/perceptual_m.bmp
148.13099999999997	3.798000000000002	5.0	1.0	0.532	n/a	/BLUEbox.bmp
151.92899999999997	3.798000000000002	5.0	1.0	1.267	n/a	/BLUEbox.bmp
155.72699999999998	3.399000000000001	5.0	1.0	0.622	n/a	/BLUEbox.bmp
159.12599999999998	2.9980000000000473	5.0	1.0	0.553	n/a	/BLUEbox.bmp
162.12400000000002	3.798999999999978	5.0	1.0	0.52	n/a	/BLUEbox.bmp
165.923	4.398000000000025	4.0	1.0	1.874	port	warm
170.32100000000003	4.796999999999969	3.0	1.0	1.035	june	noon
175.118	4.398000000000025	4.0	1.0	1.482	wreath	leap
179.51600000000002	2.998999999999967	5.0	1.0	0.997	n/a	/BLUEbox.bmp
182.515	4.398000000000025	6.0	1.0	1.92	task-Rhyming/perceptual_c.bmp	task-Rhyming/perceptual_d.bmp
186.913	4.397999999999968	2.0	1.0	1.558	glove	stove
191.31099999999998	4.798000000000002	1.0	1.0	1.107	numb	crumb
196.10899999999998	4.7970000000000255	2.0	0.0	1.745	stood	flood
200.906	4.397999999999968	6.0	1.0	1.27	task-Rhyming/perceptual_i.bmp	task-Rhyming/perceptual_j.bmp
205.30399999999997	4.798000000000002	4.0	1.0	1.0	smart	drought
210.10199999999998	4.398000000000025	3.0	0.0	1.105	stir	blur
214.5	3.3979999999999677	5.0	1.0	1.104	n/a	/BLUEbox.bmp
217.89799999999997	3.799000000000035	5.0	1.0	0.588	n/a	/BLUEbox.bmp
221.697	4.796999999999969	2.0	1.0	1.158	pool	wool
226.49399999999997	2.9990000000000236	5.0	1.0	0.822	n/a	/BLUEbox.bmp
229.493	3.399000000000001	5.0	1.0	2.092	n/a	/BLUEbox.bmp
232.892	4.396999999999991	2.0	1.0	1.836	fought	drought
237.289	3.9990000000000236	3.0	1.0	1.443	flight	spite
241.288	4.396999999999991	3.0	1.0	1.286	scheme	cream
245.685	3.998999999999967	6.0	0.0	0.913	task-Rhyming/perceptual_z.bmp	task-Rhyming/perceptual_g.bmp
249.68399999999997	4.7970000000000255	4.0	1.0	1.087	ghost	pose
254.481	3.399000000000001	5.0	1.0	0.759	n/a	/BLUEbox.bmp
257.88	3.9979999999999905	4.0	1.0	1.049	grace	fence
261.878	3.9979999999999905	4.0	1.0	1.022	dried	stood
265.876	3.9979999999999905	4.0	1.0	1.722	ford	rod
269.87399999999997	4.398000000000025	1.0	1.0	1.743	strap	gap
274.272	4.798000000000002	6.0	1.0	1.697	task-Rhyming/perceptual_e.bmp	task-Rhyming/perceptual_f.bmp
279.07	2.998999999999967	5.0	err	err	n/a	/BLUEbox.bmp
282.06899999999996	3.9980000000000473	4.0	1.0	1.155	gross	post
286.067	3.9979999999999905	4.0	0.0	0.67	fault	note
290.065	4.798000000000002	1.0	1.0	0.875	bull	full
294.863	4.796999999999969	3.0	1.0	1.056	chase	grace
299.65999999999997	3.9979999999999905	3.0	1.0	1.083	float	note
303.65799999999996	4.798000000000002	3.0	1.0	1.167	bride	dried
308.45599999999996	4.798000000000002	4.0	1.0	1.219	thief	plead
313.25399999999996	4.398000000000025	1.0	1.0	1.17	bluff	puff
317.652	4.798000000000002	6.0	1.0	1.078	task-Rhyming/perceptual_v.bmp	task-Rhyming/perceptual_w.bmp
322.45	4.796999999999969	1.0	1.0	1.077	shove	glove
327.24699999999996	4.398000000000025	6.0	0.0	1.493	task-Rhyming/perceptual_y.bmp	task-Rhyming/perceptual_o.bmp
331.645	4.798000000000002	2.0	1.0	1.37	stamp	swamp
336.443	4.398000000000025	4.0	1.0	1.218	stamp	tomb
340.841	3.0	5.0	1.0	1.121	n/a	/BLUEbox.bmp
343.841	22.0	n/a	n/a	n/a	n/a	/REDbox.bmp
