onset	duration	trial_type	accuracy	response_time	prime_stim	target_stim
0.0	3.998000000000001	2.0	0.0	0.744	post	cost
3.998000000000001	2.9989999999999952	5.0	1.0	0.653	n/a	/BLUEbox.bmp
6.996999999999996	4.398000000000003	6.0	1.0	0.682	task-Rhyming/perceptual_o.bmp	task-Rhyming/perceptual_p.bmp
11.395	3.9979999999999976	3.0	0.0	0.974	rum	numb
15.392999999999997	3.798000000000002	5.0	1.0	0.675	n/a	/BLUEbox.bmp
19.191	3.9979999999999976	6.0	1.0	0.881	task-Rhyming/perceptual_c.bmp	task-Rhyming/perceptual_u.bmp
23.188999999999997	3.9990000000000023	1.0	1.0	0.916	fought	sought
27.188	3.9979999999999976	1.0	1.0	0.502	scheme	theme
31.185999999999996	3.998000000000001	6.0	1.0	0.844	task-Rhyming/perceptual_m.bmp	task-Rhyming/perceptual_n.bmp
35.184	4.39800000000001	1.0	1.0	0.876	stool	fool
39.58200000000001	3.397999999999996	5.0	1.0	0.788	n/a	/BLUEbox.bmp
42.980000000000004	4.397999999999996	1.0	1.0	0.701	soak	oak
47.378	4.397999999999996	2.0	0.0	0.504	threat	wheat
51.775999999999996	3.9980000000000047	1.0	1.0	0.843	thread	spread
55.774	4.397999999999996	3.0	1.0	0.554	pile	trial
60.172	4.798000000000002	4.0	1.0	0.898	swap	watch
64.97	3.798000000000002	5.0	1.0	0.702	n/a	/BLUEbox.bmp
68.768	3.399000000000001	5.0	1.0	0.746	n/a	/BLUEbox.bmp
72.167	4.397999999999996	4.0	1.0	1.129	tough	dull
76.565	4.797000000000011	6.0	0.0	0.811	task-Rhyming/perceptual_w.bmp	task-Rhyming/perceptual_e.bmp
81.36200000000001	4.797999999999988	1.0	1.0	0.854	sweep	creep
86.16	4.798000000000002	6.0	0.0	0.789	task-Rhyming/perceptual_k.bmp	task-Rhyming/perceptual_t.bmp
90.958	3.3980000000000103	5.0	1.0	0.948	n/a	/BLUEbox.bmp
94.35600000000001	3.399000000000001	3.0	1.0	0.733	stroke	soak
97.75500000000001	4.397999999999996	4.0	0.0	1.724	trial	fall
102.153	4.796999999999997	6.0	1.0	0.823	task-Rhyming/perceptual_k.bmp	task-Rhyming/perceptual_l.bmp
106.95	2.9989999999999952	5.0	1.0	0.62	n/a	/BLUEbox.bmp
109.949	3.397999999999996	5.0	1.0	0.515	n/a	/BLUEbox.bmp
113.347	3.399000000000001	5.0	1.0	0.963	n/a	/BLUEbox.bmp
116.746	3.397999999999996	5.0	1.0	0.513	n/a	/BLUEbox.bmp
120.14399999999999	3.998000000000019	1.0	err	err	beef	reef
124.14200000000001	2.9989999999999952	5.0	1.0	0.588	n/a	/BLUEbox.bmp
127.141	4.797999999999988	2.0	1.0	1.394	wart	smart
131.939	4.796999999999997	2.0	1.0	1.128	dose	pose
136.736	3.399000000000001	5.0	1.0	0.76	n/a	/BLUEbox.bmp
140.135	3.9979999999999905	2.0	1.0	1.383	touch	couch
144.13299999999998	3.998000000000019	6.0	0.0	0.9	task-Rhyming/perceptual_v.bmp	task-Rhyming/perceptual_m.bmp
148.131	3.798000000000002	5.0	1.0	0.825	n/a	/BLUEbox.bmp
151.929	3.798999999999978	5.0	1.0	0.649	n/a	/BLUEbox.bmp
155.72799999999998	3.397999999999996	5.0	1.0	0.674	n/a	/BLUEbox.bmp
159.12599999999998	2.9990000000000236	5.0	1.0	0.564	n/a	/BLUEbox.bmp
162.125	3.798000000000002	5.0	1.0	0.431	n/a	/BLUEbox.bmp
165.923	4.397999999999996	4.0	1.0	1.135	port	warm
170.321	4.798000000000002	3.0	1.0	1.173	june	noon
175.119	4.397999999999996	4.0	1.0	1.068	wreath	leap
179.517	2.9979999999999905	5.0	1.0	0.973	n/a	/BLUEbox.bmp
182.515	4.397999999999996	6.0	0.0	0.707	task-Rhyming/perceptual_c.bmp	task-Rhyming/perceptual_d.bmp
186.91299999999998	4.397999999999996	2.0	1.0	1.067	glove	stove
191.31099999999998	4.798000000000002	1.0	0.0	1.371	numb	crumb
196.10899999999998	4.798000000000002	2.0	0.0	0.898	stood	flood
200.90699999999998	4.397999999999996	6.0	0.0	0.908	task-Rhyming/perceptual_i.bmp	task-Rhyming/perceptual_j.bmp
205.30499999999998	4.796999999999997	4.0	1.0	1.08	smart	drought
210.10199999999998	4.398000000000025	3.0	0.0	1.037	stir	blur
214.5	3.399000000000001	5.0	1.0	1.178	n/a	/BLUEbox.bmp
217.899	3.798000000000002	5.0	1.0	0.523	n/a	/BLUEbox.bmp
221.697	4.797999999999973	2.0	0.0	0.736	pool	wool
226.49499999999998	2.998000000000019	5.0	1.0	1.35	n/a	/BLUEbox.bmp
229.493	3.399000000000001	5.0	1.0	0.687	n/a	/BLUEbox.bmp
232.892	4.397999999999968	2.0	0.0	0.857	fought	drought
237.28999999999996	3.9980000000000473	3.0	0.0	0.798	flight	spite
241.288	4.397999999999968	3.0	1.0	0.837	scheme	cream
245.68599999999998	3.9979999999999905	6.0	1.0	0.733	task-Rhyming/perceptual_z.bmp	task-Rhyming/perceptual_g.bmp
249.68399999999997	4.798000000000002	4.0	1.0	1.235	ghost	pose
254.48199999999997	3.3980000000000246	5.0	1.0	0.943	n/a	/BLUEbox.bmp
257.88	3.9979999999999905	4.0	1.0	0.955	grace	fence
261.878	3.9979999999999905	4.0	0.0	1.268	dried	stood
265.876	3.9979999999999905	4.0	err	err	ford	rod
269.87399999999997	4.398000000000025	1.0	1.0	1.118	strap	gap
274.272	4.798000000000002	6.0	0.0	0.678	task-Rhyming/perceptual_e.bmp	task-Rhyming/perceptual_f.bmp
279.07	2.9990000000000236	5.0	1.0	0.675	n/a	/BLUEbox.bmp
282.069	3.9979999999999905	4.0	0.0	0.927	gross	post
286.067	3.9979999999999905	4.0	1.0	1.04	fault	note
290.065	4.798000000000002	1.0	1.0	0.594	bull	full
294.863	4.798000000000002	3.0	0.0	1.658	chase	grace
299.661	3.9979999999999905	3.0	1.0	1.54	float	note
303.659	4.7970000000000255	3.0	1.0	1.056	bride	dried
308.456	4.797999999999945	4.0	1.0	1.197	thief	plead
313.25399999999996	4.398000000000025	1.0	1.0	0.793	bluff	puff
317.652	4.798000000000002	6.0	0.0	1.102	task-Rhyming/perceptual_v.bmp	task-Rhyming/perceptual_w.bmp
322.45	4.798000000000002	1.0	1.0	1.378	shove	glove
327.248	4.398000000000025	6.0	0.0	1.335	task-Rhyming/perceptual_y.bmp	task-Rhyming/perceptual_o.bmp
331.646	4.796999999999969	2.0	0.0	1.053	stamp	swamp
336.443	4.398000000000025	4.0	1.0	0.741	stamp	tomb
340.841	3.0	5.0	1.0	1.081	n/a	/BLUEbox.bmp
343.841	22.0	n/a	n/a	n/a	n/a	/REDbox.bmp
