onset	duration	trial_type	accuracy	response_time	prime_stim	target_stim
0.0	4.007999999999996	2.0	0.0	0.577	post	cost
4.007999999999996	3.0060000000000002	5.0	1.0	0.388	n/a	/BLUEbox.bmp
7.013999999999996	4.408999999999999	6.0	1.0	0.733	task-Rhyming/perceptual_o.bmp	task-Rhyming/perceptual_p.bmp
11.422999999999995	4.008000000000003	3.0	1.0	0.791	rum	numb
15.430999999999997	3.808	5.0	1.0	0.364	n/a	/BLUEbox.bmp
19.238999999999997	4.009	6.0	1.0	0.618	task-Rhyming/perceptual_c.bmp	task-Rhyming/perceptual_u.bmp
23.247999999999998	4.008000000000003	1.0	1.0	0.374	fought	sought
27.256	4.007999999999996	1.0	0.0	0.479	scheme	theme
31.263999999999996	4.007999999999996	6.0	1.0	0.52	task-Rhyming/perceptual_m.bmp	task-Rhyming/perceptual_n.bmp
35.27199999999999	4.409000000000006	1.0	1.0	0.43	stool	fool
39.681	3.4069999999999965	5.0	1.0	0.566	n/a	/BLUEbox.bmp
43.087999999999994	4.410000000000011	1.0	1.0	0.514	soak	oak
47.498000000000005	4.408999999999992	2.0	0.0	0.463	threat	wheat
51.907	4.007999999999996	1.0	1.0	0.733	thread	spread
55.91499999999999	4.409000000000006	3.0	0.0	0.849	pile	trial
60.324	4.810000000000002	4.0	0.0	0.456	swap	watch
65.134	3.8079999999999927	5.0	1.0	0.698	n/a	/BLUEbox.bmp
68.942	3.4070000000000107	5.0	1.0	0.511	n/a	/BLUEbox.bmp
72.349	4.408999999999992	4.0	1.0	0.542	tough	dull
76.758	4.810000000000002	6.0	1.0	0.738	task-Rhyming/perceptual_w.bmp	task-Rhyming/perceptual_e.bmp
81.568	4.810000000000002	1.0	1.0	0.332	sweep	creep
86.378	4.810000000000002	6.0	1.0	0.627	task-Rhyming/perceptual_k.bmp	task-Rhyming/perceptual_t.bmp
91.188	3.4069999999999965	5.0	1.0	0.338	n/a	/BLUEbox.bmp
94.595	3.4069999999999965	3.0	1.0	0.404	stroke	soak
98.002	4.408999999999992	4.0	1.0	0.602	trial	fall
102.41099999999999	4.810000000000002	6.0	1.0	0.511	task-Rhyming/perceptual_k.bmp	task-Rhyming/perceptual_l.bmp
107.22099999999999	3.0060000000000002	5.0	1.0	0.297	n/a	/BLUEbox.bmp
110.22699999999999	3.4070000000000107	5.0	1.0	0.949	n/a	/BLUEbox.bmp
113.634	3.4070000000000107	5.0	1.0	0.658	n/a	/BLUEbox.bmp
117.04100000000001	3.4069999999999823	5.0	1.0	0.518	n/a	/BLUEbox.bmp
120.448	4.00800000000001	1.0	1.0	0.438	beef	reef
124.456	3.0060000000000002	5.0	1.0	0.339	n/a	/BLUEbox.bmp
127.462	4.809999999999988	2.0	0.0	0.432	wart	smart
132.272	4.810000000000002	2.0	0.0	0.27	dose	pose
137.082	3.4069999999999823	5.0	1.0	0.288	n/a	/BLUEbox.bmp
140.48899999999998	4.008000000000038	2.0	1.0	0.912	touch	couch
144.497	4.008999999999958	6.0	1.0	0.658	task-Rhyming/perceptual_v.bmp	task-Rhyming/perceptual_m.bmp
148.50599999999997	3.8070000000000164	5.0	1.0	0.335	n/a	/BLUEbox.bmp
152.313	3.8079999999999927	5.0	1.0	0.364	n/a	/BLUEbox.bmp
156.12099999999998	3.407000000000039	5.0	1.0	0.386	n/a	/BLUEbox.bmp
159.52800000000002	3.007000000000005	5.0	1.0	0.481	n/a	/BLUEbox.bmp
162.53500000000003	3.8069999999999595	5.0	err	err	n/a	/BLUEbox.bmp
166.34199999999998	4.408999999999992	4.0	1.0	0.696	port	warm
170.75099999999998	4.810000000000002	3.0	1.0	0.406	june	noon
175.56099999999998	4.408999999999992	4.0	1.0	0.465	wreath	leap
179.96999999999997	3.007000000000005	5.0	1.0	0.5	n/a	/BLUEbox.bmp
182.97699999999998	4.409000000000049	6.0	1.0	0.346	task-Rhyming/perceptual_c.bmp	task-Rhyming/perceptual_d.bmp
187.38600000000002	4.408999999999992	2.0	0.0	0.436	glove	stove
191.79500000000002	4.810000000000002	1.0	1.0	0.313	numb	crumb
196.60500000000002	4.810000000000002	2.0	0.0	0.487	stood	flood
201.41500000000002	4.408999999999992	6.0	1.0	0.404	task-Rhyming/perceptual_i.bmp	task-Rhyming/perceptual_j.bmp
205.824	4.810000000000002	4.0	1.0	0.605	smart	drought
210.63400000000001	4.408999999999992	3.0	1.0	0.468	stir	blur
215.043	3.4069999999999823	5.0	1.0	0.735	n/a	/BLUEbox.bmp
218.45	3.8070000000000164	5.0	1.0	0.739	n/a	/BLUEbox.bmp
222.257	4.810000000000002	2.0	0.0	0.58	pool	wool
227.067	3.006999999999948	5.0	1.0	0.726	n/a	/BLUEbox.bmp
230.07399999999996	3.407000000000039	5.0	err	err	n/a	/BLUEbox.bmp
233.481	4.408999999999992	2.0	0.0	0.267	fought	drought
237.89	4.007999999999981	3.0	1.0	0.313	flight	spite
241.89799999999997	4.408999999999992	3.0	1.0	0.488	scheme	cream
246.30699999999996	4.008000000000038	6.0	1.0	0.515	task-Rhyming/perceptual_z.bmp	task-Rhyming/perceptual_g.bmp
250.315	4.810000000000002	4.0	1.0	0.702	ghost	pose
255.125	3.4069999999999823	5.0	1.0	0.665	n/a	/BLUEbox.bmp
258.532	4.007999999999981	4.0	0.0	0.491	grace	fence
262.53999999999996	4.0090000000000146	4.0	1.0	0.955	dried	stood
266.549	4.007999999999981	4.0	0.0	0.206	ford	rod
270.55699999999996	4.409000000000049	1.0	0.0	0.529	strap	gap
274.966	4.810000000000002	6.0	1.0	0.354	task-Rhyming/perceptual_e.bmp	task-Rhyming/perceptual_f.bmp
279.776	3.005999999999972	5.0	1.0	0.403	n/a	/BLUEbox.bmp
282.782	4.007999999999981	4.0	0.0	0.492	gross	post
286.78999999999996	4.0090000000000146	4.0	1.0	0.477	fault	note
290.799	4.810000000000002	1.0	1.0	0.474	bull	full
295.609	4.809000000000026	3.0	1.0	0.385	chase	grace
300.418	4.008999999999958	3.0	1.0	0.375	float	note
304.42699999999996	4.810000000000002	3.0	1.0	0.534	bride	dried
309.23699999999997	4.810000000000002	4.0	1.0	0.579	thief	plead
314.04699999999997	4.408999999999992	1.0	err	err	bluff	puff
318.45599999999996	4.809000000000026	6.0	1.0	0.458	task-Rhyming/perceptual_v.bmp	task-Rhyming/perceptual_w.bmp
323.265	4.810000000000002	1.0	1.0	0.588	shove	glove
328.075	4.408999999999992	6.0	0.0	0.232	task-Rhyming/perceptual_y.bmp	task-Rhyming/perceptual_o.bmp
332.484	4.810000000000002	2.0	err	err	stamp	swamp
337.294	4.408999999999992	4.0	err	err	stamp	tomb
341.703	3.0020000000000095	5.0	1.0	0.504	n/a	/BLUEbox.bmp
344.705	22.005999999999972	n/a	n/a	n/a	n/a	/REDbox.bmp
