onset	duration	trial_type	accuracy	response_time	prime_stim	target_stim
0.0	3.998000000000001	Etrue	1.0	0.507	5 - 2 =	3
3.998000000000001	4.398	EFalse	1.0	0.513	8 - 5 =	2
8.396	2.9990000000000023	control	1.0	0.681	n/a	/BLUEbox.bmp
11.395000000000003	3.9979999999999976	HTrue	1.0	0.421	9 - 7 =	2
15.393	3.9979999999999976	Etrue	1.0	0.37	8 - 5 =	3
19.391	2.9980000000000047	control	1.0	0.539	n/a	/BLUEbox.bmp
22.389000000000003	3.9989999999999952	Etrue	1.0	0.397	5 - 2 =	3
26.387999999999998	3.9980000000000047	Hfalse	0.0	0.439	8 - 2 =	7
30.386000000000003	3.9979999999999976	EFalse	1.0	0.549	5 - 2 =	2
34.384	2.9979999999999976	control	1.0	0.606	n/a	/BLUEbox.bmp
37.382	4.798000000000002	EFalse	1.0	0.53	8 - 7 =	3
42.18	2.9989999999999952	control	1.0	0.474	n/a	/BLUEbox.bmp
45.178999999999995	4.798000000000002	HTrue	1.0	0.574	7 - 2 =	5
49.977	4.796999999999997	Hfalse	1.0	0.452	7 - 2 =	6
54.773999999999994	4.798000000000002	HTrue	0.0	0.782	8 - 2 =	6
59.571999999999996	4.1980000000000075	HTrue	1.0	0.589	9 - 2 =	7
63.77	3.399000000000008	control	1.0	0.797	n/a	/BLUEbox.bmp
67.16900000000001	3.9979999999999905	Etrue	1.0	0.467	6 - 5 =	1
71.167	4.397999999999996	Etrue	1.0	0.469	6 - 4 =	2
75.565	3.798000000000002	control	1.0	0.588	n/a	/BLUEbox.bmp
79.363	3.9979999999999905	EFalse	1.0	0.527	5 - 3 =	1
83.36099999999999	3.998000000000019	HTrue	1.0	0.437	7 - 4 =	3
87.35900000000001	3.399000000000001	control	1.0	0.635	n/a	/BLUEbox.bmp
90.75800000000001	4.197999999999979	HTrue	1.0	0.565	7 - 4 =	3
94.95599999999999	4.398000000000025	Etrue	1.0	0.687	6 - 5 =	1
99.35400000000001	3.7979999999999734	control	1.0	0.651	n/a	/BLUEbox.bmp
103.15199999999999	4.798000000000002	Etrue	1.0	0.737	3 - 2 =	1
107.94999999999999	3.9979999999999905	Hfalse	1.0	0.478	8 - 6 =	4
111.94799999999998	4.398000000000025	Hfalse	1.0	0.543	9 - 4 =	4
116.346	4.796999999999997	Etrue	1.0	0.608	8 - 7 =	1
121.143	4.798000000000002	HTrue	0.0	1.715	8 - 6 =	2
125.941	4.397999999999996	Etrue	1.0	0.552	5 - 3 =	2
130.339	4.397999999999996	Etrue	1.0	0.47	5 - 4 =	1
134.737	4.798000000000002	Etrue	1.0	0.578	4 - 3 =	1
139.535	4.397999999999996	HTrue	1.0	0.455	9 - 2 =	7
143.933	4.397999999999996	Hfalse	1.0	0.58	9 - 7 =	4
148.331	4.796999999999997	Etrue	1.0	0.57	8 - 7 =	1
153.128	3.7990000000000066	control	1.0	0.816	n/a	/BLUEbox.bmp
156.927	3.397999999999996	control	1.0	0.525	n/a	/BLUEbox.bmp
160.325	3.798000000000002	control	1.0	0.467	n/a	/BLUEbox.bmp
164.123	4.397999999999996	HTrue	1.0	0.466	9 - 4 =	5
168.521	4.397999999999996	HTrue	0.0	0.532	6 - 2 =	4
172.91899999999998	4.798000000000002	EFalse	1.0	0.455	4 - 3 =	2
177.71699999999998	4.798000000000002	Hfalse	1.0	0.523	7 - 3 =	3
182.515	3.397999999999996	control	1.0	0.682	n/a	/BLUEbox.bmp
185.91299999999998	4.798000000000002	EFalse	1.0	0.56	3 - 2 =	2
190.71099999999998	4.397999999999996	HTrue	1.0	0.456	9 - 6 =	3
195.10899999999998	4.799000000000007	HTrue	1.0	0.412	7 - 2 =	5
199.908	22.0	n/a	n/a	n/a	n/a	/REDbox.bmp
