onset	duration	trial_type	accuracy	response_time	prime_stim	target_stim
0.0	4.008000000000003	2.0	0.0	0.781	post	cost
4.008000000000003	3.005999999999993	5.0	1.0	0.979	n/a	/BLUEbox.bmp
7.013999999999996	4.409000000000006	6.0	1.0	0.695	task-Rhyming/perceptual_o.bmp	task-Rhyming/perceptual_p.bmp
11.423000000000002	4.007999999999996	3.0	1.0	0.396	rum	numb
15.430999999999997	3.808000000000007	5.0	err	err	n/a	/BLUEbox.bmp
19.239000000000004	4.007999999999996	6.0	1.0	0.751	task-Rhyming/perceptual_c.bmp	task-Rhyming/perceptual_u.bmp
23.247	4.007999999999996	1.0	1.0	0.491	fought	sought
27.254999999999995	4.009	1.0	1.0	0.36	scheme	theme
31.263999999999996	4.00800000000001	6.0	1.0	0.676	task-Rhyming/perceptual_m.bmp	task-Rhyming/perceptual_n.bmp
35.272000000000006	4.408999999999992	1.0	1.0	0.335	stool	fool
39.681	3.4069999999999965	5.0	err	err	n/a	/BLUEbox.bmp
43.087999999999994	4.409000000000006	1.0	1.0	0.206	soak	oak
47.497	4.409000000000006	2.0	0.0	0.409	threat	wheat
51.906000000000006	4.007999999999996	1.0	1.0	0.344	thread	spread
55.914	4.408999999999992	3.0	1.0	0.196	pile	trial
60.32299999999999	4.810000000000002	4.0	0.0	0.8	swap	watch
65.133	3.808000000000007	5.0	err	err	n/a	/BLUEbox.bmp
68.941	3.4069999999999965	5.0	1.0	0.709	n/a	/BLUEbox.bmp
72.348	4.408999999999992	4.0	0.0	0.197	tough	dull
76.75699999999999	4.810000000000002	6.0	0.0	0.402	task-Rhyming/perceptual_w.bmp	task-Rhyming/perceptual_e.bmp
81.567	4.810000000000002	1.0	1.0	0.375	sweep	creep
86.377	4.810000000000002	6.0	1.0	0.519	task-Rhyming/perceptual_k.bmp	task-Rhyming/perceptual_t.bmp
91.187	3.4070000000000107	5.0	err	err	n/a	/BLUEbox.bmp
94.59400000000001	3.4069999999999823	3.0	1.0	0.321	stroke	soak
98.00099999999999	4.40900000000002	4.0	err	err	trial	fall
102.41000000000001	4.810000000000002	6.0	1.0	0.578	task-Rhyming/perceptual_k.bmp	task-Rhyming/perceptual_l.bmp
107.22000000000001	3.0060000000000002	5.0	err	err	n/a	/BLUEbox.bmp
110.22600000000001	3.4069999999999823	5.0	1.0	0.634	n/a	/BLUEbox.bmp
113.633	3.4070000000000107	5.0	1.0	0.389	n/a	/BLUEbox.bmp
117.04	3.4069999999999823	5.0	1.0	0.365	n/a	/BLUEbox.bmp
120.44699999999999	4.00800000000001	1.0	1.0	0.359	beef	reef
124.455	3.0060000000000002	5.0	1.0	0.504	n/a	/BLUEbox.bmp
127.461	4.8100000000000165	2.0	0.0	0.366	wart	smart
132.27100000000002	4.810000000000002	2.0	0.0	0.545	dose	pose
137.08100000000002	3.4069999999999823	5.0	1.0	0.764	n/a	/BLUEbox.bmp
140.488	4.007999999999981	2.0	0.0	0.307	touch	couch
144.49599999999998	4.008000000000038	6.0	err	err	task-Rhyming/perceptual_v.bmp	task-Rhyming/perceptual_m.bmp
148.50400000000002	3.8079999999999927	5.0	err	err	n/a	/BLUEbox.bmp
152.312	3.8079999999999927	5.0	1.0	0.404	n/a	/BLUEbox.bmp
156.12	3.4069999999999823	5.0	err	err	n/a	/BLUEbox.bmp
159.527	3.0060000000000286	5.0	1.0	0.501	n/a	/BLUEbox.bmp
162.53300000000002	3.8079999999999927	5.0	1.0	0.412	n/a	/BLUEbox.bmp
166.341	4.408999999999992	4.0	1.0	0.556	port	warm
170.75	4.810000000000002	3.0	1.0	0.332	june	noon
175.56	4.408999999999992	4.0	0.0	0.499	wreath	leap
179.969	3.0060000000000286	5.0	1.0	1.208	n/a	/BLUEbox.bmp
182.97500000000002	4.408999999999992	6.0	0.0	0.677	task-Rhyming/perceptual_c.bmp	task-Rhyming/perceptual_d.bmp
187.38400000000001	4.408999999999992	2.0	0.0	0.346	glove	stove
191.793	4.810000000000002	1.0	1.0	0.307	numb	crumb
196.603	4.810000000000002	2.0	0.0	0.289	stood	flood
201.413	4.408999999999992	6.0	1.0	0.411	task-Rhyming/perceptual_i.bmp	task-Rhyming/perceptual_j.bmp
205.822	4.810000000000002	4.0	1.0	0.633	smart	drought
210.632	4.408999999999992	3.0	1.0	0.556	stir	blur
215.041	3.4069999999999823	5.0	err	err	n/a	/BLUEbox.bmp
218.44799999999998	3.8079999999999927	5.0	1.0	0.584	n/a	/BLUEbox.bmp
222.25599999999997	4.810000000000002	2.0	0.0	0.397	pool	wool
227.06599999999997	3.0060000000000286	5.0	1.0	0.755	n/a	/BLUEbox.bmp
230.072	3.4069999999999823	5.0	err	err	n/a	/BLUEbox.bmp
233.47899999999998	4.408999999999992	2.0	0.0	0.492	fought	drought
237.88799999999998	4.007999999999981	3.0	1.0	0.369	flight	spite
241.89599999999996	4.409000000000049	3.0	1.0	0.309	scheme	cream
246.305	4.007999999999981	6.0	0.0	0.582	task-Rhyming/perceptual_z.bmp	task-Rhyming/perceptual_g.bmp
250.313	4.810000000000002	4.0	0.0	0.545	ghost	pose
255.123	3.4069999999999823	5.0	1.0	0.792	n/a	/BLUEbox.bmp
258.53	4.008000000000038	4.0	0.0	0.339	grace	fence
262.538	4.008999999999958	4.0	1.0	0.541	dried	stood
266.54699999999997	4.008000000000038	4.0	1.0	0.681	ford	rod
270.555	4.408999999999992	1.0	1.0	0.577	strap	gap
274.964	4.810000000000002	6.0	1.0	0.453	task-Rhyming/perceptual_e.bmp	task-Rhyming/perceptual_f.bmp
279.774	3.005999999999972	5.0	err	err	n/a	/BLUEbox.bmp
282.78	4.008000000000038	4.0	0.0	0.362	gross	post
286.788	4.007999999999981	4.0	1.0	0.887	fault	note
290.796	4.810000000000002	1.0	1.0	0.318	bull	full
295.606	4.810000000000002	3.0	1.0	0.34	chase	grace
300.416	4.007999999999981	3.0	1.0	0.317	float	note
304.424	4.810000000000002	3.0	err	err	bride	dried
309.234	4.810000000000002	4.0	0.0	0.017	thief	plead
314.044	4.408999999999992	1.0	1.0	0.148	bluff	puff
318.453	4.810000000000002	6.0	1.0	0.318	task-Rhyming/perceptual_v.bmp	task-Rhyming/perceptual_w.bmp
323.263	4.810000000000002	1.0	1.0	0.358	shove	glove
328.073	4.408999999999992	6.0	err	err	task-Rhyming/perceptual_y.bmp	task-Rhyming/perceptual_o.bmp
332.48199999999997	4.810000000000002	2.0	0.0	0.362	stamp	swamp
337.292	4.408999999999992	4.0	0.0	0.803	stamp	tomb
341.70099999999996	3.001000000000033	5.0	err	err	n/a	/BLUEbox.bmp
344.702	22.005999999999972	n/a	n/a	n/a	n/a	/REDbox.bmp
