onset	duration	trial_type	accuracy	response_time	prime_stim	target_stim
0.0	4.0120000000000005	2.0	1.0	2.229	post	cost
4.0120000000000005	3.009999999999998	5.0	1.0	1.62	n/a	/BLUEbox.bmp
7.0219999999999985	4.413000000000004	6.0	1.0	1.689	task-Rhyming/perceptual_o.bmp	task-Rhyming/perceptual_p.bmp
11.435000000000002	4.012999999999998	3.0	1.0	1.084	rum	numb
15.448	3.8119999999999976	5.0	err	err	n/a	/BLUEbox.bmp
19.259999999999998	4.012000000000008	6.0	1.0	1.579	task-Rhyming/perceptual_c.bmp	task-Rhyming/perceptual_u.bmp
23.272000000000006	4.012999999999991	1.0	1.0	1.112	fought	sought
27.284999999999997	4.0120000000000005	1.0	1.0	0.411	scheme	theme
31.296999999999997	4.013000000000005	6.0	1.0	1.194	task-Rhyming/perceptual_m.bmp	task-Rhyming/perceptual_n.bmp
35.31	4.4140000000000015	1.0	1.0	1.084	stool	fool
39.724000000000004	3.4099999999999966	5.0	1.0	0.589	n/a	/BLUEbox.bmp
43.134	4.4140000000000015	1.0	1.0	0.691	soak	oak
47.548	4.4140000000000015	2.0	1.0	1.126	threat	wheat
51.962	4.0120000000000005	1.0	1.0	1.074	thread	spread
55.974000000000004	4.4140000000000015	3.0	0.0	1.315	pile	trial
60.388000000000005	4.814999999999998	4.0	1.0	1.31	swap	watch
65.203	3.8119999999999976	5.0	1.0	0.685	n/a	/BLUEbox.bmp
69.015	3.4110000000000014	5.0	err	err	n/a	/BLUEbox.bmp
72.426	4.412999999999997	4.0	1.0	1.192	tough	dull
76.839	4.814999999999998	6.0	0.0	1.25	task-Rhyming/perceptual_w.bmp	task-Rhyming/perceptual_e.bmp
81.654	4.814999999999998	1.0	1.0	1.11	sweep	creep
86.469	4.814999999999998	6.0	1.0	1.352	task-Rhyming/perceptual_k.bmp	task-Rhyming/perceptual_t.bmp
91.28399999999999	3.4110000000000014	5.0	1.0	0.645	n/a	/BLUEbox.bmp
94.695	3.4110000000000014	3.0	1.0	0.413	stroke	soak
98.106	4.414000000000016	4.0	1.0	1.037	trial	fall
102.52000000000001	4.814999999999998	6.0	1.0	1.763	task-Rhyming/perceptual_k.bmp	task-Rhyming/perceptual_l.bmp
107.33500000000001	3.008999999999986	5.0	1.0	0.678	n/a	/BLUEbox.bmp
110.344	3.4110000000000014	5.0	err	err	n/a	/BLUEbox.bmp
113.755	3.4099999999999966	5.0	1.0	0.634	n/a	/BLUEbox.bmp
117.16499999999999	3.4110000000000014	5.0	1.0	0.511	n/a	/BLUEbox.bmp
120.576	4.0120000000000005	1.0	1.0	1.123	beef	reef
124.588	3.009999999999991	5.0	1.0	0.696	n/a	/BLUEbox.bmp
127.59799999999998	4.815000000000026	2.0	0.0	1.127	wart	smart
132.413	4.814999999999998	2.0	0.0	1.108	dose	pose
137.228	3.4099999999999966	5.0	1.0	0.589	n/a	/BLUEbox.bmp
140.638	4.013000000000005	2.0	1.0	1.137	touch	couch
144.651	4.0120000000000005	6.0	1.0	1.265	task-Rhyming/perceptual_v.bmp	task-Rhyming/perceptual_m.bmp
148.663	3.8119999999999834	5.0	1.0	0.539	n/a	/BLUEbox.bmp
152.475	3.812000000000012	5.0	err	err	n/a	/BLUEbox.bmp
156.287	3.4110000000000014	5.0	1.0	0.489	n/a	/BLUEbox.bmp
159.698	3.008999999999986	5.0	1.0	0.708	n/a	/BLUEbox.bmp
162.707	3.812000000000012	5.0	1.0	0.395	n/a	/BLUEbox.bmp
166.519	4.413999999999987	4.0	1.0	1.161	port	warm
170.933	4.814999999999998	3.0	1.0	1.148	june	noon
175.748	4.414000000000016	4.0	1.0	1.075	wreath	leap
180.162	3.008999999999986	5.0	1.0	0.532	n/a	/BLUEbox.bmp
183.171	4.414000000000016	6.0	1.0	1.49	task-Rhyming/perceptual_c.bmp	task-Rhyming/perceptual_d.bmp
187.585	4.413999999999987	2.0	1.0	1.235	glove	stove
191.999	4.814999999999998	1.0	1.0	1.118	numb	crumb
196.814	4.814999999999998	2.0	1.0	1.429	stood	flood
201.629	4.413000000000011	6.0	0.0	1.101	task-Rhyming/perceptual_i.bmp	task-Rhyming/perceptual_j.bmp
206.042	4.814999999999998	4.0	1.0	1.155	smart	drought
210.857	4.413999999999987	3.0	1.0	1.292	stir	blur
215.271	3.4110000000000014	5.0	1.0	0.613	n/a	/BLUEbox.bmp
218.682	3.812000000000012	5.0	1.0	0.388	n/a	/BLUEbox.bmp
222.494	4.814999999999998	2.0	0.0	1.14	pool	wool
227.309	3.0090000000000146	5.0	1.0	0.741	n/a	/BLUEbox.bmp
230.318	3.4110000000000014	5.0	1.0	0.531	n/a	/BLUEbox.bmp
233.729	4.413000000000011	2.0	0.0	1.402	fought	drought
238.14200000000002	4.012999999999977	3.0	1.0	1.106	flight	spite
242.155	4.413999999999987	3.0	1.0	1.089	scheme	cream
246.569	4.0120000000000005	6.0	1.0	1.116	task-Rhyming/perceptual_z.bmp	task-Rhyming/perceptual_g.bmp
250.581	4.814999999999998	4.0	1.0	1.095	ghost	pose
255.396	3.41100000000003	5.0	1.0	0.496	n/a	/BLUEbox.bmp
258.807	4.011999999999944	4.0	1.0	1.231	grace	fence
262.81899999999996	4.013000000000034	4.0	1.0	1.533	dried	stood
266.832	4.012000000000057	4.0	1.0	1.194	ford	rod
270.84400000000005	4.413999999999987	1.0	1.0	1.212	strap	gap
275.25800000000004	4.814999999999941	6.0	1.0	1.63	task-Rhyming/perceptual_e.bmp	task-Rhyming/perceptual_f.bmp
280.073	3.009999999999991	5.0	1.0	0.627	n/a	/BLUEbox.bmp
283.08299999999997	4.012000000000057	4.0	1.0	1.369	gross	post
287.095	4.01299999999992	4.0	1.0	1.781	fault	note
291.10799999999995	4.815000000000055	1.0	1.0	1.015	bull	full
295.923	4.814999999999941	3.0	1.0	1.032	chase	grace
300.73799999999994	4.012000000000057	3.0	1.0	1.258	float	note
304.75	4.815000000000055	3.0	1.0	1.333	bride	dried
309.56500000000005	4.814999999999941	4.0	1.0	1.199	thief	plead
314.38	4.413999999999987	1.0	1.0	1.102	bluff	puff
318.794	4.815000000000055	6.0	1.0	1.052	task-Rhyming/perceptual_v.bmp	task-Rhyming/perceptual_w.bmp
323.60900000000004	4.814999999999941	1.0	1.0	1.153	shove	glove
328.424	4.413999999999987	6.0	1.0	1.073	task-Rhyming/perceptual_y.bmp	task-Rhyming/perceptual_o.bmp
332.83799999999997	4.815000000000055	2.0	1.0	1.439	stamp	swamp
337.653	4.413999999999987	4.0	1.0	1.351	stamp	tomb
342.067	3.0019999999999527	5.0	1.0	0.575	n/a	/BLUEbox.bmp
345.06899999999996	22.008000000000038	n/a	n/a	n/a	n/a	/REDbox.bmp
