onset	duration	trial_type	accuracy	response_time	prime_stim	target_stim
0.0	3.9980000000000047	easy	1.0	0.611	task-Num/dot3_36-59.bmp	task-Num/dot3_12-35.bmp
3.9980000000000047	4.798000000000002	medium	1.0	0.982	task-Num/dot3_18-24.bmp	task-Num/dot3_36-72.bmp
8.796000000000006	3.9979999999999976	easy	1.0	0.599	task-Num/dot3_36-55.bmp	task-Num/dot3_12-31.bmp
12.794000000000004	3.9979999999999976	hard	1.0	0.71	task-Num/dot3_24-22.bmp	task-Num/dot3_36-94.bmp
16.792	3.798000000000002	control	1.0	0.647	n/a	/BLUEbox.bmp
20.590000000000003	2.9990000000000023	control	1.0	0.704	n/a	/BLUEbox.bmp
23.589000000000006	4.797999999999995	easy	1.0	0.807	task-Num/dot3_36-57.bmp	task-Num/dot3_12-33.bmp
28.387	4.796999999999997	hard	1.0	1.116	task-Num/dot3_36-107.bmp	task-Num/dot3_24-35.bmp
33.184	3.9990000000000094	medium	1.0	0.806	task-Num/dot3_18-22.bmp	task-Num/dot3_36-70.bmp
37.18300000000001	3.9979999999999905	medium	0.0	1.332	task-Num/dot3_18-21.bmp	task-Num/dot3_36-69.bmp
41.181	4.798000000000002	hard	1.0	1.024	task-Num/dot3_36-106.bmp	task-Num/dot3_24-34.bmp
45.979	4.796999999999997	medium	1.0	0.67	task-Num/dot3_18-19.bmp	task-Num/dot3_36-67.bmp
50.775999999999996	3.9980000000000047	medium	1.0	0.894	task-Num/dot3_36-84.bmp	task-Num/dot3_18-36.bmp
54.774	3.399000000000001	control	0.0	n/a	n/a	/BLUEbox.bmp
58.173	3.9980000000000047	hard	1.0	0.606	task-Num/dot3_36-105.bmp	task-Num/dot3_24-33.bmp
62.17100000000001	3.9979999999999905	easy	1.0	0.741	task-Num/dot3_12-22.bmp	task-Num/dot3_36-46.bmp
66.169	4.798000000000002	easy	1.0	1.252	task-Num/dot3_12-23.bmp	task-Num/dot3_36-47.bmp
70.967	3.798000000000002	control	1.0	0.733	n/a	/BLUEbox.bmp
74.765	4.397999999999996	medium	1.0	1.241	task-Num/dot3_18-20.bmp	task-Num/dot3_36-68.bmp
79.163	4.798000000000002	easy	1.0	0.969	task-Num/dot3_36-60.bmp	task-Num/dot3_12-36.bmp
83.961	3.9980000000000047	easy	1.0	1.574	task-Num/dot3_12-21.bmp	task-Num/dot3_36-45.bmp
87.959	3.9979999999999905	hard	1.0	1.517	task-Num/dot3_24-24.bmp	task-Num/dot3_36-96.bmp
91.957	3.9990000000000236	hard	1.0	1.391	task-Num/dot3_24-23.bmp	task-Num/dot3_36-95.bmp
95.95600000000002	2.9979999999999905	control	1.0	0.726	n/a	/BLUEbox.bmp
98.95400000000001	4.397999999999996	hard	1.0	1.284	task-Num/dot3_36-104.bmp	task-Num/dot3_24-32.bmp
103.352	4.798000000000002	medium	1.0	1.098	task-Num/dot3_36-80.bmp	task-Num/dot3_18-32.bmp
108.15	2.9989999999999952	control	1.0	0.687	n/a	/BLUEbox.bmp
111.149	4.397999999999996	easy	1.0	0.607	task-Num/dot3_12-20.bmp	task-Num/dot3_36-44.bmp
115.547	3.998000000000019	medium	1.0	1.052	task-Num/dot3_36-79.bmp	task-Num/dot3_18-31.bmp
119.54500000000002	4.797999999999973	easy	1.0	1.304	task-Num/dot3_12-19.bmp	task-Num/dot3_36-43.bmp
124.34299999999999	4.398000000000025	medium	1.0	2.526	task-Num/dot3_18-23.bmp	task-Num/dot3_36-71.bmp
128.741	4.796999999999997	medium	1.0	1.054	task-Num/dot3_36-82.bmp	task-Num/dot3_18-34.bmp
133.538	3.798999999999978	control	1.0	0.65	n/a	/BLUEbox.bmp
137.337	4.7970000000000255	hard	1.0	0.933	task-Num/dot3_36-108.bmp	task-Num/dot3_24-36.bmp
142.13400000000001	4.397999999999996	hard	1.0	0.95	task-Num/dot3_24-20.bmp	task-Num/dot3_36-92.bmp
146.532	4.397999999999996	easy	1.0	1.168	task-Num/dot3_36-58.bmp	task-Num/dot3_12-34.bmp
150.93	4.397999999999996	easy	1.0	0.634	task-Num/dot3_12-24.bmp	task-Num/dot3_36-48.bmp
155.328	3.399000000000001	control	1.0	0.739	n/a	/BLUEbox.bmp
158.727	4.397999999999996	hard	1.0	1.21	task-Num/dot3_24-21.bmp	task-Num/dot3_36-93.bmp
163.125	4.798000000000002	easy	1.0	0.734	task-Num/dot3_36-56.bmp	task-Num/dot3_12-32.bmp
167.923	3.397999999999996	control	1.0	0.647	n/a	/BLUEbox.bmp
171.321	4.397999999999996	medium	1.0	0.639	task-Num/dot3_36-81.bmp	task-Num/dot3_18-33.bmp
175.719	3.399000000000001	control	0.0	n/a	n/a	/BLUEbox.bmp
179.118	3.397999999999996	control	1.0	0.587	n/a	/BLUEbox.bmp
182.516	3.798000000000002	control	1.0	0.597	n/a	/BLUEbox.bmp
186.314	4.397999999999996	hard	1.0	0.775	task-Num/dot3_24-19.bmp	task-Num/dot3_36-91.bmp
190.712	4.798000000000002	hard	1.0	0.839	task-Num/dot3_36-103.bmp	task-Num/dot3_24-31.bmp
195.51	4.399000000000001	medium	1.0	1.001	task-Num/dot3_36-83.bmp	task-Num/dot3_18-35.bmp
199.909	22.0	n/a	n/a	n/a	n/a	/REDbox.bmp
