onset	duration	trial_type	accuracy	response_time	prime_stim	target_stim
0.0	4.011999999999997	2.0	1.0	1.28	post	cost
4.011999999999997	3.010000000000005	5.0	0.0	0.889	n/a	/BLUEbox.bmp
7.022000000000002	4.412999999999997	6.0	1.0	1.554	task-Rhyming/perceptual_o.bmp	task-Rhyming/perceptual_p.bmp
11.434999999999999	4.012999999999998	3.0	1.0	1.175	rum	numb
15.447999999999997	3.8120000000000047	5.0	1.0	0.715	n/a	/BLUEbox.bmp
19.26	4.0120000000000005	6.0	1.0	1.174	task-Rhyming/perceptual_c.bmp	task-Rhyming/perceptual_u.bmp
23.272000000000002	4.012999999999998	1.0	1.0	1.499	fought	sought
27.285	4.0120000000000005	1.0	1.0	1.168	scheme	theme
31.297	4.013000000000002	6.0	1.0	1.267	task-Rhyming/perceptual_m.bmp	task-Rhyming/perceptual_n.bmp
35.31	4.412999999999997	1.0	1.0	1.289	stool	fool
39.723	3.4110000000000014	5.0	err	err	n/a	/BLUEbox.bmp
43.134	4.4140000000000015	1.0	1.0	1.188	soak	oak
47.548	4.4140000000000015	2.0	1.0	1.235	threat	wheat
51.962	4.0120000000000005	1.0	1.0	1.23	thread	spread
55.974000000000004	4.4140000000000015	3.0	0.0	1.794	pile	trial
60.388000000000005	4.814999999999998	4.0	1.0	1.324	swap	watch
65.203	3.8119999999999976	5.0	0.0	1.089	n/a	/BLUEbox.bmp
69.015	3.4099999999999966	5.0	err	err	n/a	/BLUEbox.bmp
72.425	4.4140000000000015	4.0	1.0	1.297	tough	dull
76.839	4.814999999999998	6.0	1.0	1.126	task-Rhyming/perceptual_w.bmp	task-Rhyming/perceptual_e.bmp
81.654	4.815000000000012	1.0	1.0	1.27	sweep	creep
86.46900000000001	4.814999999999998	6.0	1.0	1.659	task-Rhyming/perceptual_k.bmp	task-Rhyming/perceptual_t.bmp
91.284	3.4110000000000014	5.0	err	err	n/a	/BLUEbox.bmp
94.69500000000001	3.4099999999999966	3.0	err	err	stroke	soak
98.105	4.413999999999987	4.0	1.0	1.555	trial	fall
102.51899999999999	4.814999999999998	6.0	1.0	1.569	task-Rhyming/perceptual_k.bmp	task-Rhyming/perceptual_l.bmp
107.33399999999999	3.0100000000000193	5.0	err	err	n/a	/BLUEbox.bmp
110.34400000000001	3.4099999999999966	5.0	err	err	n/a	/BLUEbox.bmp
113.754	3.4110000000000014	5.0	1.0	1.866	n/a	/BLUEbox.bmp
117.165	3.4110000000000014	5.0	1.0	0.195	n/a	/BLUEbox.bmp
120.57600000000001	4.0120000000000005	1.0	1.0	1.69	beef	reef
124.58800000000001	3.008999999999986	5.0	err	err	n/a	/BLUEbox.bmp
127.597	4.8149999999999835	2.0	1.0	1.272	wart	smart
132.41199999999998	4.814999999999998	2.0	0.0	1.292	dose	pose
137.22699999999998	3.4110000000000014	5.0	err	err	n/a	/BLUEbox.bmp
140.63799999999998	4.013000000000005	2.0	1.0	1.75	touch	couch
144.65099999999998	4.0120000000000005	6.0	1.0	1.874	task-Rhyming/perceptual_v.bmp	task-Rhyming/perceptual_m.bmp
148.66299999999998	3.812000000000012	5.0	err	err	n/a	/BLUEbox.bmp
152.475	3.8119999999999834	5.0	err	err	n/a	/BLUEbox.bmp
156.28699999999998	3.410000000000025	5.0	0.0	1.266	n/a	/BLUEbox.bmp
159.697	3.009999999999991	5.0	0.0	0.845	n/a	/BLUEbox.bmp
162.707	3.8119999999999834	5.0	err	err	n/a	/BLUEbox.bmp
166.51899999999998	4.414000000000016	4.0	1.0	1.329	port	warm
170.933	4.814999999999998	3.0	1.0	1.518	june	noon
175.748	4.413000000000011	4.0	1.0	1.126	wreath	leap
180.161	3.009999999999991	5.0	err	err	n/a	/BLUEbox.bmp
183.171	4.4129999999999825	6.0	1.0	1.415	task-Rhyming/perceptual_c.bmp	task-Rhyming/perceptual_d.bmp
187.58399999999997	4.414000000000016	2.0	1.0	1.336	glove	stove
191.998	4.814999999999998	1.0	1.0	1.205	numb	crumb
196.813	4.814999999999998	2.0	1.0	1.514	stood	flood
201.628	4.414000000000016	6.0	0.0	1.867	task-Rhyming/perceptual_i.bmp	task-Rhyming/perceptual_j.bmp
206.042	4.814999999999998	4.0	1.0	1.134	smart	drought
210.857	4.413999999999987	3.0	1.0	1.442	stir	blur
215.271	3.4099999999999966	5.0	err	err	n/a	/BLUEbox.bmp
218.68099999999998	3.812000000000012	5.0	1.0	0.476	n/a	/BLUEbox.bmp
222.493	4.814999999999998	2.0	1.0	1.189	pool	wool
227.308	3.009999999999991	5.0	1.0	0.577	n/a	/BLUEbox.bmp
230.31799999999998	3.410000000000025	5.0	err	err	n/a	/BLUEbox.bmp
233.728	4.413999999999987	2.0	0.0	1.221	fought	drought
238.142	4.012999999999977	3.0	1.0	1.281	flight	spite
242.15499999999997	4.413000000000011	3.0	1.0	1.029	scheme	cream
246.56799999999998	4.012999999999977	6.0	1.0	1.428	task-Rhyming/perceptual_z.bmp	task-Rhyming/perceptual_g.bmp
250.58099999999996	4.815000000000055	4.0	1.0	1.204	ghost	pose
255.39600000000002	3.409999999999968	5.0	0.0	0.804	n/a	/BLUEbox.bmp
258.806	4.013000000000034	4.0	1.0	1.157	grace	fence
262.819	4.011999999999944	4.0	1.0	1.123	dried	stood
266.83099999999996	4.013000000000034	4.0	1.0	1.376	ford	rod
270.844	4.413999999999987	1.0	1.0	1.263	strap	gap
275.258	4.814999999999998	6.0	0.0	1.79	task-Rhyming/perceptual_e.bmp	task-Rhyming/perceptual_f.bmp
280.073	3.0090000000000146	5.0	1.0	0.574	n/a	/BLUEbox.bmp
283.082	4.012999999999977	4.0	0.0	1.454	gross	post
287.09499999999997	4.0120000000000005	4.0	1.0	1.35	fault	note
291.10699999999997	4.814999999999998	1.0	1.0	1.809	bull	full
295.92199999999997	4.814999999999998	3.0	1.0	1.37	chase	grace
300.73699999999997	4.013000000000034	3.0	1.0	1.072	float	note
304.75	4.814999999999998	3.0	1.0	1.127	bride	dried
309.565	4.814999999999998	4.0	1.0	1.107	thief	plead
314.38	4.413000000000011	1.0	1.0	1.211	bluff	puff
318.793	4.814999999999998	6.0	1.0	1.301	task-Rhyming/perceptual_v.bmp	task-Rhyming/perceptual_w.bmp
323.608	4.814999999999998	1.0	1.0	1.21	shove	glove
328.423	4.413999999999987	6.0	1.0	1.074	task-Rhyming/perceptual_y.bmp	task-Rhyming/perceptual_o.bmp
332.837	4.814999999999998	2.0	1.0	1.585	stamp	swamp
337.652	4.413999999999987	4.0	1.0	1.441	stamp	tomb
342.066	3.0020000000000095	5.0	err	err	n/a	/BLUEbox.bmp
345.068	22.00799999999998	n/a	n/a	n/a	n/a	/REDbox.bmp
