onset	duration	trial_type	accuracy	response_time	prime_stim	target_stim
0.0	4.0	2.0	0.0	0.731	post	cost
4.0	3.0	5.0	1.0	0.838	n/a	/BLUEbox.bmp
7.0	4.400000000000006	6.0	1.0	0.769	task-Rhyming/perceptual_o.bmp	task-Rhyming/perceptual_p.bmp
11.400000000000006	4.0	3.0	1.0	1.405	rum	numb
15.400000000000006	3.7989999999999924	5.0	1.0	0.677	n/a	/BLUEbox.bmp
19.198999999999998	4.0	6.0	1.0	0.947	task-Rhyming/perceptual_c.bmp	task-Rhyming/perceptual_u.bmp
23.198999999999998	4.0	1.0	1.0	0.844	fought	sought
27.198999999999998	4.0	1.0	1.0	0.761	scheme	theme
31.198999999999998	4.0	6.0	1.0	0.726	task-Rhyming/perceptual_m.bmp	task-Rhyming/perceptual_n.bmp
35.199	4.400000000000006	1.0	1.0	0.823	stool	fool
39.599000000000004	3.399000000000001	5.0	1.0	0.51	n/a	/BLUEbox.bmp
42.998000000000005	4.400000000000006	1.0	1.0	0.802	soak	oak
47.39800000000001	4.3999999999999915	2.0	0.0	1.591	threat	wheat
51.798	4.0	1.0	1.0	0.776	thread	spread
55.798	4.400000000000006	3.0	0.0	2.557	pile	trial
60.19800000000001	4.799999999999997	4.0	0.0	0.839	swap	watch
64.998	3.7990000000000066	5.0	1.0	0.641	n/a	/BLUEbox.bmp
68.79700000000001	3.4000000000000057	5.0	1.0	0.414	n/a	/BLUEbox.bmp
72.19700000000002	4.399999999999977	4.0	1.0	0.862	tough	dull
76.597	4.800000000000011	6.0	1.0	0.82	task-Rhyming/perceptual_w.bmp	task-Rhyming/perceptual_e.bmp
81.397	4.800000000000011	1.0	1.0	0.648	sweep	creep
86.19700000000002	4.798999999999978	6.0	1.0	0.961	task-Rhyming/perceptual_k.bmp	task-Rhyming/perceptual_t.bmp
90.996	3.4000000000000057	5.0	1.0	0.668	n/a	/BLUEbox.bmp
94.396	3.4000000000000057	3.0	1.0	0.685	stroke	soak
97.796	4.400000000000006	4.0	1.0	1.326	trial	fall
102.19600000000001	4.799999999999983	6.0	1.0	0.952	task-Rhyming/perceptual_k.bmp	task-Rhyming/perceptual_l.bmp
106.996	3.0	5.0	1.0	0.709	n/a	/BLUEbox.bmp
109.996	3.4000000000000057	5.0	1.0	0.477	n/a	/BLUEbox.bmp
113.396	3.399000000000001	5.0	1.0	0.649	n/a	/BLUEbox.bmp
116.795	3.4000000000000057	5.0	1.0	0.937	n/a	/BLUEbox.bmp
120.19500000000001	4.0	1.0	1.0	0.667	beef	reef
124.19500000000001	3.0	5.0	1.0	0.652	n/a	/BLUEbox.bmp
127.19500000000001	4.799999999999997	2.0	err	err	wart	smart
131.995	4.800000000000011	2.0	0.0	0.873	dose	pose
136.79500000000002	3.399000000000001	5.0	1.0	0.467	n/a	/BLUEbox.bmp
140.19400000000002	4.0	2.0	1.0	1.1	touch	couch
144.19400000000002	4.0	6.0	1.0	1.599	task-Rhyming/perceptual_v.bmp	task-Rhyming/perceptual_m.bmp
148.19400000000002	3.8000000000000114	5.0	1.0	1.268	n/a	/BLUEbox.bmp
151.99400000000003	3.7999999999999545	5.0	1.0	0.667	n/a	/BLUEbox.bmp
155.79399999999998	3.400000000000034	5.0	1.0	0.437	n/a	/BLUEbox.bmp
159.19400000000002	2.998999999999967	5.0	1.0	0.552	n/a	/BLUEbox.bmp
162.19299999999998	3.8000000000000114	5.0	1.0	0.491	n/a	/BLUEbox.bmp
165.993	4.400000000000034	4.0	1.0	0.749	port	warm
170.39300000000003	4.7999999999999545	3.0	1.0	0.936	june	noon
175.19299999999998	4.400000000000034	4.0	1.0	0.944	wreath	leap
179.59300000000002	3.0	5.0	1.0	0.686	n/a	/BLUEbox.bmp
182.59300000000002	4.399000000000001	6.0	1.0	0.632	task-Rhyming/perceptual_c.bmp	task-Rhyming/perceptual_d.bmp
186.99200000000002	4.399999999999977	2.0	0.0	0.616	glove	stove
191.392	4.800000000000011	1.0	1.0	0.532	numb	crumb
196.192	4.7999999999999545	2.0	0.0	0.916	stood	flood
200.99199999999996	4.400000000000034	6.0	1.0	0.713	task-Rhyming/perceptual_i.bmp	task-Rhyming/perceptual_j.bmp
205.392	4.798999999999978	4.0	1.0	0.885	smart	drought
210.19099999999997	4.400000000000034	3.0	0.0	0.843	stir	blur
214.591	3.3999999999999773	5.0	1.0	0.669	n/a	/BLUEbox.bmp
217.99099999999999	3.8000000000000114	5.0	1.0	0.564	n/a	/BLUEbox.bmp
221.791	4.800000000000011	2.0	0.0	0.707	pool	wool
226.591	3.0	5.0	1.0	0.474	n/a	/BLUEbox.bmp
229.591	3.3999999999999773	5.0	1.0	0.53	n/a	/BLUEbox.bmp
232.99099999999999	4.399000000000001	2.0	1.0	1.314	fought	drought
237.39	4.0	3.0	1.0	1.453	flight	spite
241.39	4.399999999999977	3.0	1.0	1.431	scheme	cream
245.78999999999996	4.0	6.0	1.0	0.743	task-Rhyming/perceptual_z.bmp	task-Rhyming/perceptual_g.bmp
249.78999999999996	4.800000000000011	4.0	1.0	0.922	ghost	pose
254.58999999999997	3.399000000000001	5.0	1.0	0.566	n/a	/BLUEbox.bmp
257.989	4.0	4.0	1.0	0.903	grace	fence
261.989	4.0	4.0	1.0	0.807	dried	stood
265.989	4.0	4.0	1.0	1.267	ford	rod
269.989	4.400000000000034	1.0	0.0	0.879	strap	gap
274.389	4.7999999999999545	6.0	1.0	1.012	task-Rhyming/perceptual_e.bmp	task-Rhyming/perceptual_f.bmp
279.18899999999996	2.9990000000000236	5.0	1.0	0.572	n/a	/BLUEbox.bmp
282.188	4.0	4.0	1.0	1.244	gross	post
286.188	4.0	4.0	1.0	0.886	fault	note
290.188	4.800000000000011	1.0	1.0	0.57	bull	full
294.988	4.800000000000011	3.0	1.0	0.502	chase	grace
299.788	3.998999999999967	3.0	1.0	0.808	float	note
303.787	4.800000000000011	3.0	1.0	0.926	bride	dried
308.587	4.800000000000011	4.0	1.0	0.893	thief	plead
313.387	4.399999999999977	1.0	1.0	0.552	bluff	puff
317.787	4.800000000000011	6.0	1.0	0.742	task-Rhyming/perceptual_v.bmp	task-Rhyming/perceptual_w.bmp
322.587	4.800000000000011	1.0	1.0	0.87	shove	glove
327.387	4.399000000000001	6.0	0.0	0.727	task-Rhyming/perceptual_y.bmp	task-Rhyming/perceptual_o.bmp
331.786	4.800000000000011	2.0	0.0	1.284	stamp	swamp
336.586	4.399999999999977	4.0	1.0	0.922	stamp	tomb
340.986	3.0	5.0	1.0	0.6	n/a	/BLUEbox.bmp
343.986	22.000999999999976	n/a	n/a	n/a	n/a	/REDbox.bmp
