onset	duration	trial_type	accuracy	response_time	prime_stim	target_stim
0.0	3.998000000000001	Etrue	1.0	1.219	5 - 2 =	3
3.998000000000001	4.398	EFalse	1.0	1.401	8 - 5 =	2
8.396	2.9990000000000023	control	1.0	0.617	n/a	/BLUEbox.bmp
11.395000000000003	3.9979999999999976	HTrue	0.0	n/a	9 - 7 =	2
15.393	3.9979999999999976	Etrue	0.0	n/a	8 - 5 =	3
19.391	2.9990000000000023	control	1.0	0.624	n/a	/BLUEbox.bmp
22.39	3.9979999999999976	Etrue	1.0	0.868	5 - 2 =	3
26.387999999999998	3.9980000000000047	Hfalse	1.0	0.88	8 - 2 =	7
30.386000000000003	3.9979999999999976	EFalse	1.0	0.854	5 - 2 =	2
34.384	2.9990000000000023	control	1.0	0.475	n/a	/BLUEbox.bmp
37.383	4.797999999999995	EFalse	1.0	1.055	8 - 7 =	3
42.181	2.9990000000000094	control	1.0	0.426	n/a	/BLUEbox.bmp
45.18000000000001	4.796999999999997	HTrue	1.0	1.071	7 - 2 =	5
49.977000000000004	4.798000000000002	Hfalse	1.0	1.047	7 - 2 =	6
54.775000000000006	4.797999999999988	HTrue	1.0	0.828	8 - 2 =	6
59.57299999999999	4.1980000000000075	HTrue	1.0	1.473	9 - 2 =	7
63.771	3.397999999999996	control	1.0	0.546	n/a	/BLUEbox.bmp
67.169	3.9990000000000094	Etrue	1.0	1.226	6 - 5 =	1
71.168	4.397999999999996	Etrue	1.0	1.139	6 - 4 =	2
75.566	3.798000000000002	control	1.0	0.586	n/a	/BLUEbox.bmp
79.364	3.9979999999999905	EFalse	1.0	0.941	5 - 3 =	1
83.362	3.9980000000000047	HTrue	1.0	2.333	7 - 4 =	3
87.36	3.399000000000001	control	1.0	0.476	n/a	/BLUEbox.bmp
90.759	4.197999999999993	HTrue	0.0	n/a	7 - 4 =	3
94.957	4.39800000000001	Etrue	1.0	2.53	6 - 5 =	1
99.355	3.798000000000002	control	1.0	0.553	n/a	/BLUEbox.bmp
103.153	4.798000000000002	Etrue	1.0	1.019	3 - 2 =	1
107.95100000000001	3.9979999999999905	Hfalse	1.0	1.194	8 - 6 =	4
111.949	4.397999999999996	Hfalse	1.0	1.002	9 - 4 =	4
116.347	4.798000000000002	Etrue	1.0	1.5	8 - 7 =	1
121.145	4.798000000000002	HTrue	1.0	1.206	8 - 6 =	2
125.943	4.39800000000001	Etrue	1.0	1.777	5 - 3 =	2
130.341	4.397999999999968	Etrue	1.0	1.245	5 - 4 =	1
134.73899999999998	4.7970000000000255	Etrue	1.0	1.187	4 - 3 =	1
139.536	4.398000000000025	HTrue	1.0	1.454	9 - 2 =	7
143.93400000000003	4.397999999999968	Hfalse	0.0	2.438	9 - 7 =	4
148.332	4.798000000000002	Etrue	1.0	1.088	8 - 7 =	1
153.13	3.798000000000002	control	1.0	1.79	n/a	/BLUEbox.bmp
156.928	3.399000000000001	control	1.0	0.41	n/a	/BLUEbox.bmp
160.327	3.798000000000002	control	1.0	0.396	n/a	/BLUEbox.bmp
164.125	4.398000000000025	HTrue	1.0	1.008	9 - 4 =	5
168.52300000000002	4.397999999999968	HTrue	1.0	1.11	6 - 2 =	4
172.921	4.798000000000002	EFalse	1.0	1.16	4 - 3 =	2
177.719	4.798000000000002	Hfalse	1.0	1.091	7 - 3 =	3
182.517	3.3980000000000246	control	1.0	0.557	n/a	/BLUEbox.bmp
185.91500000000002	4.798000000000002	EFalse	err	err	3 - 2 =	2
190.71300000000002	4.397999999999968	HTrue	1.0	1.144	9 - 6 =	3
195.111	4.799000000000035	HTrue	0.0	n/a	7 - 2 =	5
199.91000000000003	22.0	n/a	n/a	n/a	n/a	/REDbox.bmp
