onset	duration	trial_type	accuracy	response_time	prime_stim	target_stim
0.0	3.9979999999999976	2.0	0.0	1.053	post	cost
3.9979999999999976	2.9979999999999976	5.0	1.0	0.595	n/a	/BLUEbox.bmp
6.995999999999995	4.398000000000003	6.0	1.0	1.442	task-Rhyming/perceptual_o.bmp	task-Rhyming/perceptual_p.bmp
11.393999999999998	3.9979999999999976	3.0	1.0	1.31	rum	numb
15.391999999999996	3.7989999999999995	5.0	1.0	0.691	n/a	/BLUEbox.bmp
19.190999999999995	3.9979999999999976	6.0	1.0	1.182	task-Rhyming/perceptual_c.bmp	task-Rhyming/perceptual_u.bmp
23.188999999999993	3.9980000000000047	1.0	1.0	1.663	fought	sought
27.186999999999998	3.9980000000000047	1.0	1.0	0.637	scheme	theme
31.185000000000002	3.9979999999999905	6.0	1.0	1.034	task-Rhyming/perceptual_m.bmp	task-Rhyming/perceptual_n.bmp
35.18299999999999	4.39800000000001	1.0	1.0	1.202	stool	fool
39.581	3.3989999999999867	5.0	1.0	0.426	n/a	/BLUEbox.bmp
42.97999999999999	4.397000000000006	1.0	1.0	0.774	soak	oak
47.376999999999995	4.397999999999996	2.0	1.0	1.204	threat	wheat
51.77499999999999	3.9990000000000094	1.0	1.0	0.781	thread	spread
55.774	4.397999999999996	3.0	1.0	1.331	pile	trial
60.172	4.796999999999997	4.0	1.0	3.272	swap	watch
64.969	3.7990000000000066	5.0	1.0	0.639	n/a	/BLUEbox.bmp
68.768	3.397999999999996	5.0	1.0	0.502	n/a	/BLUEbox.bmp
72.166	4.397999999999996	4.0	1.0	2.325	tough	dull
76.564	4.798000000000002	6.0	1.0	2.839	task-Rhyming/perceptual_w.bmp	task-Rhyming/perceptual_e.bmp
81.362	4.796999999999997	1.0	1.0	1.281	sweep	creep
86.15899999999999	4.798000000000002	6.0	1.0	0.931	task-Rhyming/perceptual_k.bmp	task-Rhyming/perceptual_t.bmp
90.957	3.399000000000001	5.0	1.0	0.327	n/a	/BLUEbox.bmp
94.356	3.3980000000000103	3.0	1.0	0.672	stroke	soak
97.754	4.397999999999996	4.0	1.0	0.989	trial	fall
102.152	4.798000000000002	6.0	1.0	1.505	task-Rhyming/perceptual_k.bmp	task-Rhyming/perceptual_l.bmp
106.95	2.9979999999999905	5.0	1.0	0.42	n/a	/BLUEbox.bmp
109.948	3.399000000000001	5.0	1.0	0.533	n/a	/BLUEbox.bmp
113.347	3.397999999999996	5.0	1.0	0.915	n/a	/BLUEbox.bmp
116.74499999999999	3.399000000000001	5.0	1.0	0.823	n/a	/BLUEbox.bmp
120.14399999999999	3.998000000000019	1.0	1.0	1.67	beef	reef
124.14200000000001	2.9979999999999905	5.0	1.0	0.344	n/a	/BLUEbox.bmp
127.14	4.797999999999988	2.0	1.0	0.854	wart	smart
131.938	4.798000000000002	2.0	1.0	1.459	dose	pose
136.736	3.3980000000000246	5.0	1.0	0.624	n/a	/BLUEbox.bmp
140.13400000000001	3.9979999999999905	2.0	1.0	1.609	touch	couch
144.132	3.9979999999999905	6.0	1.0	1.136	task-Rhyming/perceptual_v.bmp	task-Rhyming/perceptual_m.bmp
148.13	3.798999999999978	5.0	1.0	1.46	n/a	/BLUEbox.bmp
151.92899999999997	3.798000000000002	5.0	1.0	1.018	n/a	/BLUEbox.bmp
155.72699999999998	3.3980000000000246	5.0	1.0	0.643	n/a	/BLUEbox.bmp
159.125	2.9990000000000236	5.0	1.0	0.782	n/a	/BLUEbox.bmp
162.12400000000002	3.797999999999945	5.0	1.0	0.565	n/a	/BLUEbox.bmp
165.92199999999997	4.398000000000025	4.0	1.0	0.726	port	warm
170.32	4.798000000000002	3.0	1.0	1.122	june	noon
175.118	4.398000000000025	4.0	1.0	1.49	wreath	leap
179.51600000000002	2.9979999999999905	5.0	1.0	0.749	n/a	/BLUEbox.bmp
182.514	4.397999999999968	6.0	1.0	0.948	task-Rhyming/perceptual_c.bmp	task-Rhyming/perceptual_d.bmp
186.91199999999998	4.398000000000025	2.0	1.0	1.738	glove	stove
191.31	4.798000000000002	1.0	1.0	1.905	numb	crumb
196.108	4.798000000000002	2.0	1.0	1.411	stood	flood
200.906	4.397999999999968	6.0	1.0	0.618	task-Rhyming/perceptual_i.bmp	task-Rhyming/perceptual_j.bmp
205.30399999999997	4.798000000000002	4.0	1.0	0.926	smart	drought
210.10199999999998	4.397000000000048	3.0	1.0	0.86	stir	blur
214.49900000000002	3.399000000000001	5.0	1.0	0.576	n/a	/BLUEbox.bmp
217.89800000000002	3.797999999999945	5.0	1.0	0.907	n/a	/BLUEbox.bmp
221.69599999999997	4.798000000000002	2.0	1.0	1.026	pool	wool
226.49399999999997	2.9979999999999905	5.0	1.0	0.644	n/a	/BLUEbox.bmp
229.49199999999996	3.399000000000001	5.0	1.0	0.786	n/a	/BLUEbox.bmp
232.89099999999996	4.398000000000025	2.0	1.0	0.889	fought	drought
237.289	3.9979999999999905	3.0	err	err	flight	spite
241.28699999999998	4.398000000000025	3.0	1.0	1.748	scheme	cream
245.685	3.9979999999999905	6.0	1.0	0.66	task-Rhyming/perceptual_z.bmp	task-Rhyming/perceptual_g.bmp
249.683	4.798000000000002	4.0	1.0	1.046	ghost	pose
254.481	3.3979999999999677	5.0	1.0	0.639	n/a	/BLUEbox.bmp
257.87899999999996	3.9980000000000473	4.0	1.0	0.834	grace	fence
261.877	3.998999999999967	4.0	1.0	2.551	dried	stood
265.876	3.9979999999999905	4.0	1.0	1.864	ford	rod
269.87399999999997	4.398000000000025	1.0	1.0	1.957	strap	gap
274.272	4.796999999999969	6.0	1.0	1.022	task-Rhyming/perceptual_e.bmp	task-Rhyming/perceptual_f.bmp
279.06899999999996	2.9990000000000236	5.0	1.0	0.784	n/a	/BLUEbox.bmp
282.068	3.9979999999999905	4.0	1.0	1.201	gross	post
286.066	3.9979999999999905	4.0	1.0	0.935	fault	note
290.06399999999996	4.798000000000002	1.0	1.0	0.76	bull	full
294.86199999999997	4.798000000000002	3.0	1.0	0.724	chase	grace
299.65999999999997	3.9979999999999905	3.0	1.0	0.497	float	note
303.65799999999996	4.798000000000002	3.0	0.0	1.322	bride	dried
308.45599999999996	4.7970000000000255	4.0	1.0	0.824	thief	plead
313.253	4.398000000000025	1.0	1.0	1.872	bluff	puff
317.651	4.797999999999945	6.0	1.0	0.734	task-Rhyming/perceptual_v.bmp	task-Rhyming/perceptual_w.bmp
322.44899999999996	4.798000000000002	1.0	1.0	0.895	shove	glove
327.24699999999996	4.398000000000025	6.0	1.0	0.8	task-Rhyming/perceptual_y.bmp	task-Rhyming/perceptual_o.bmp
331.645	4.798000000000002	2.0	1.0	1.648	stamp	swamp
336.443	4.398000000000025	4.0	1.0	0.832	stamp	tomb
340.841	2.998999999999967	5.0	1.0	1.166	n/a	/BLUEbox.bmp
343.84	22.0	n/a	n/a	n/a	n/a	/REDbox.bmp
