onset	duration	trial_type	accuracy	response_time	prime_stim	target_stim
0.0	3.9990000000000023	2.0	0.0	1.272	post	cost
3.9990000000000023	2.9979999999999976	5.0	err	err	n/a	/BLUEbox.bmp
6.997	4.397999999999996	6.0	1.0	0.994	task-Rhyming/perceptual_o.bmp	task-Rhyming/perceptual_p.bmp
11.394999999999996	3.9980000000000047	3.0	0.0	2.089	rum	numb
15.393	3.7989999999999924	5.0	1.0	0.533	n/a	/BLUEbox.bmp
19.191999999999993	3.9980000000000047	6.0	1.0	2.086	task-Rhyming/perceptual_c.bmp	task-Rhyming/perceptual_u.bmp
23.189999999999998	3.9980000000000047	1.0	1.0	1.053	fought	sought
27.188000000000002	3.9979999999999905	1.0	1.0	1.162	scheme	theme
31.185999999999993	3.9980000000000047	6.0	1.0	0.646	task-Rhyming/perceptual_m.bmp	task-Rhyming/perceptual_n.bmp
35.184	4.397999999999996	1.0	1.0	0.646	stool	fool
39.581999999999994	3.3980000000000103	5.0	1.0	0.574	n/a	/BLUEbox.bmp
42.980000000000004	4.397999999999996	1.0	1.0	0.773	soak	oak
47.378	4.397999999999996	2.0	0.0	0.672	threat	wheat
51.775999999999996	3.9980000000000047	1.0	1.0	0.713	thread	spread
55.774	4.397999999999996	3.0	1.0	0.782	pile	trial
60.172	4.798000000000002	4.0	1.0	1.317	swap	watch
64.97	3.798000000000002	5.0	1.0	0.753	n/a	/BLUEbox.bmp
68.768	3.399000000000001	5.0	1.0	0.492	n/a	/BLUEbox.bmp
72.167	4.39800000000001	4.0	1.0	1.217	tough	dull
76.56500000000001	4.796999999999997	6.0	0.0	0.89	task-Rhyming/perceptual_w.bmp	task-Rhyming/perceptual_e.bmp
81.36200000000001	4.798000000000002	1.0	1.0	0.952	sweep	creep
86.16000000000001	4.798000000000002	6.0	1.0	2.387	task-Rhyming/perceptual_k.bmp	task-Rhyming/perceptual_t.bmp
90.95800000000001	3.397999999999996	5.0	1.0	0.56	n/a	/BLUEbox.bmp
94.35600000000001	3.399000000000001	3.0	1.0	0.588	stroke	soak
97.75500000000001	4.397999999999996	4.0	1.0	0.949	trial	fall
102.153	4.798000000000002	6.0	1.0	0.614	task-Rhyming/perceptual_k.bmp	task-Rhyming/perceptual_l.bmp
106.95100000000001	2.9979999999999905	5.0	1.0	0.465	n/a	/BLUEbox.bmp
109.949	3.399000000000001	5.0	1.0	0.628	n/a	/BLUEbox.bmp
113.348	3.397999999999996	5.0	1.0	0.561	n/a	/BLUEbox.bmp
116.746	3.397999999999996	5.0	1.0	0.524	n/a	/BLUEbox.bmp
120.14399999999999	3.9989999999999952	1.0	1.0	1.202	beef	reef
124.14299999999999	2.998000000000019	5.0	1.0	0.507	n/a	/BLUEbox.bmp
127.141	4.798000000000016	2.0	1.0	1.859	wart	smart
131.93900000000002	4.798000000000002	2.0	0.0	0.838	dose	pose
136.73700000000002	3.3979999999999677	5.0	1.0	0.81	n/a	/BLUEbox.bmp
140.135	3.9979999999999905	2.0	1.0	2.375	touch	couch
144.13299999999998	3.9979999999999905	6.0	0.0	2.246	task-Rhyming/perceptual_v.bmp	task-Rhyming/perceptual_m.bmp
148.13099999999997	3.799000000000035	5.0	1.0	0.613	n/a	/BLUEbox.bmp
151.93	3.798000000000002	5.0	1.0	0.598	n/a	/BLUEbox.bmp
155.728	3.3979999999999677	5.0	1.0	0.537	n/a	/BLUEbox.bmp
159.12599999999998	2.9990000000000236	5.0	1.0	0.385	n/a	/BLUEbox.bmp
162.125	3.798000000000002	5.0	1.0	0.331	n/a	/BLUEbox.bmp
165.923	4.398000000000025	4.0	1.0	1.303	port	warm
170.32100000000003	4.797999999999945	3.0	0.0	1.127	june	noon
175.11899999999997	4.398000000000025	4.0	0.0	1.966	wreath	leap
179.517	2.9979999999999905	5.0	1.0	1.374	n/a	/BLUEbox.bmp
182.515	4.398000000000025	6.0	1.0	0.86	task-Rhyming/perceptual_c.bmp	task-Rhyming/perceptual_d.bmp
186.913	4.397999999999968	2.0	0.0	1.294	glove	stove
191.31099999999998	4.798000000000002	1.0	1.0	0.565	numb	crumb
196.10899999999998	4.798000000000002	2.0	0.0	1.761	stood	flood
200.90699999999998	4.398000000000025	6.0	1.0	0.541	task-Rhyming/perceptual_i.bmp	task-Rhyming/perceptual_j.bmp
205.305	4.796999999999969	4.0	0.0	1.324	smart	drought
210.10199999999998	4.398000000000025	3.0	0.0	0.832	stir	blur
214.5	3.399000000000001	5.0	1.0	0.504	n/a	/BLUEbox.bmp
217.899	3.798000000000002	5.0	1.0	0.539	n/a	/BLUEbox.bmp
221.697	4.798000000000002	2.0	0.0	0.724	pool	wool
226.495	2.9979999999999905	5.0	1.0	0.434	n/a	/BLUEbox.bmp
229.493	3.399000000000001	5.0	1.0	0.376	n/a	/BLUEbox.bmp
232.892	4.397999999999968	2.0	0.0	0.578	fought	drought
237.28999999999996	3.9980000000000473	3.0	1.0	0.895	flight	spite
241.288	4.397999999999968	3.0	1.0	0.444	scheme	cream
245.68599999999998	3.9979999999999905	6.0	0.0	1.335	task-Rhyming/perceptual_z.bmp	task-Rhyming/perceptual_g.bmp
249.68399999999997	4.798000000000002	4.0	1.0	1.201	ghost	pose
254.48199999999997	3.3980000000000246	5.0	1.0	0.638	n/a	/BLUEbox.bmp
257.88	3.9979999999999905	4.0	0.0	2.485	grace	fence
261.878	3.9979999999999905	4.0	1.0	1.053	dried	stood
265.876	3.9979999999999905	4.0	1.0	1.621	ford	rod
269.87399999999997	4.398000000000025	1.0	1.0	1.104	strap	gap
274.272	4.798000000000002	6.0	0.0	2.095	task-Rhyming/perceptual_e.bmp	task-Rhyming/perceptual_f.bmp
279.07	2.998999999999967	5.0	1.0	0.597	n/a	/BLUEbox.bmp
282.06899999999996	3.9980000000000473	4.0	0.0	1.713	gross	post
286.067	3.9979999999999905	4.0	1.0	1.008	fault	note
290.065	4.798000000000002	1.0	1.0	0.883	bull	full
294.863	4.798000000000002	3.0	1.0	1.231	chase	grace
299.661	3.9979999999999905	3.0	1.0	1.132	float	note
303.659	4.796999999999969	3.0	1.0	0.522	bride	dried
308.45599999999996	4.798000000000002	4.0	0.0	0.871	thief	plead
313.25399999999996	4.398000000000025	1.0	1.0	0.49	bluff	puff
317.652	4.798000000000002	6.0	1.0	0.715	task-Rhyming/perceptual_v.bmp	task-Rhyming/perceptual_w.bmp
322.45	4.798000000000002	1.0	1.0	1.573	shove	glove
327.248	4.397999999999968	6.0	0.0	0.713	task-Rhyming/perceptual_y.bmp	task-Rhyming/perceptual_o.bmp
331.64599999999996	4.7970000000000255	2.0	1.0	1.377	stamp	swamp
336.443	4.398000000000025	4.0	1.0	2.169	stamp	tomb
340.841	3.0	5.0	1.0	1.413	n/a	/BLUEbox.bmp
343.841	22.0	n/a	n/a	n/a	n/a	/REDbox.bmp
