onset	duration	trial_type	accuracy	response_time	prime_stim	target_stim
0.0	4.007999999999996	2.0	1.0	1.481	post	cost
4.007999999999996	3.0060000000000002	5.0	1.0	1.424	n/a	/BLUEbox.bmp
7.013999999999996	4.408999999999999	6.0	1.0	2.023	task-Rhyming/perceptual_o.bmp	task-Rhyming/perceptual_p.bmp
11.422999999999995	4.008000000000003	3.0	1.0	1.403	rum	numb
15.430999999999997	3.808	5.0	1.0	1.677	n/a	/BLUEbox.bmp
19.238999999999997	4.0090000000000074	6.0	1.0	1.63	task-Rhyming/perceptual_c.bmp	task-Rhyming/perceptual_u.bmp
23.248000000000005	4.007999999999996	1.0	1.0	1.796	fought	sought
27.256	4.007999999999996	1.0	1.0	1.469	scheme	theme
31.263999999999996	4.007999999999996	6.0	1.0	1.428	task-Rhyming/perceptual_m.bmp	task-Rhyming/perceptual_n.bmp
35.27199999999999	4.409000000000006	1.0	1.0	1.231	stool	fool
39.681	3.4069999999999965	5.0	1.0	1.381	n/a	/BLUEbox.bmp
43.087999999999994	4.409000000000006	1.0	1.0	1.319	soak	oak
47.497	4.408999999999992	2.0	1.0	1.74	threat	wheat
51.90599999999999	4.009	1.0	1.0	1.358	thread	spread
55.91499999999999	4.409000000000006	3.0	1.0	1.223	pile	trial
60.324	4.810000000000002	4.0	0.0	1.55	swap	watch
65.134	3.807000000000002	5.0	1.0	1.682	n/a	/BLUEbox.bmp
68.941	3.4069999999999965	5.0	1.0	1.359	n/a	/BLUEbox.bmp
72.348	4.409000000000006	4.0	1.0	1.515	tough	dull
76.757	4.809999999999988	6.0	1.0	1.657	task-Rhyming/perceptual_w.bmp	task-Rhyming/perceptual_e.bmp
81.567	4.810000000000002	1.0	1.0	1.417	sweep	creep
86.377	4.810000000000002	6.0	1.0	1.557	task-Rhyming/perceptual_k.bmp	task-Rhyming/perceptual_t.bmp
91.187	3.4070000000000107	5.0	1.0	1.306	n/a	/BLUEbox.bmp
94.59400000000001	3.4069999999999823	3.0	1.0	1.337	stroke	soak
98.00099999999999	4.40900000000002	4.0	1.0	1.383	trial	fall
102.41000000000001	4.809999999999974	6.0	1.0	1.696	task-Rhyming/perceptual_k.bmp	task-Rhyming/perceptual_l.bmp
107.21999999999998	3.0060000000000002	5.0	1.0	1.536	n/a	/BLUEbox.bmp
110.22599999999998	3.4070000000000107	5.0	1.0	0.84	n/a	/BLUEbox.bmp
113.633	3.4070000000000107	5.0	1.0	1.191	n/a	/BLUEbox.bmp
117.04	3.4069999999999823	5.0	1.0	1.511	n/a	/BLUEbox.bmp
120.44699999999999	4.0090000000000146	1.0	1.0	1.113	beef	reef
124.456	3.0060000000000002	5.0	1.0	1.475	n/a	/BLUEbox.bmp
127.462	4.809999999999988	2.0	1.0	1.607	wart	smart
132.272	4.810000000000002	2.0	0.0	1.36	dose	pose
137.082	3.406000000000006	5.0	1.0	0.98	n/a	/BLUEbox.bmp
140.488	4.0090000000000146	2.0	1.0	1.328	touch	couch
144.497	4.007999999999981	6.0	1.0	1.448	task-Rhyming/perceptual_v.bmp	task-Rhyming/perceptual_m.bmp
148.505	3.8079999999999927	5.0	1.0	1.234	n/a	/BLUEbox.bmp
152.313	3.8079999999999927	5.0	1.0	1.412	n/a	/BLUEbox.bmp
156.12099999999998	3.407000000000039	5.0	1.0	1.346	n/a	/BLUEbox.bmp
159.52800000000002	3.005999999999972	5.0	1.0	1.298	n/a	/BLUEbox.bmp
162.534	3.8079999999999927	5.0	1.0	1.503	n/a	/BLUEbox.bmp
166.34199999999998	4.408999999999992	4.0	1.0	1.434	port	warm
170.75099999999998	4.810000000000002	3.0	1.0	1.248	june	noon
175.56099999999998	4.408999999999992	4.0	1.0	1.625	wreath	leap
179.96999999999997	3.0060000000000286	5.0	1.0	1.588	n/a	/BLUEbox.bmp
182.976	4.408999999999992	6.0	1.0	1.532	task-Rhyming/perceptual_c.bmp	task-Rhyming/perceptual_d.bmp
187.385	4.408999999999992	2.0	0.0	1.826	glove	stove
191.79399999999998	4.810000000000002	1.0	1.0	1.221	numb	crumb
196.60399999999998	4.810000000000002	2.0	1.0	1.437	stood	flood
201.414	4.408999999999992	6.0	1.0	1.353	task-Rhyming/perceptual_i.bmp	task-Rhyming/perceptual_j.bmp
205.82299999999998	4.810000000000002	4.0	1.0	1.625	smart	drought
210.63299999999998	4.409000000000049	3.0	1.0	1.198	stir	blur
215.04200000000003	3.4069999999999823	5.0	1.0	1.317	n/a	/BLUEbox.bmp
218.449	3.8079999999999927	5.0	1.0	1.398	n/a	/BLUEbox.bmp
222.257	4.809000000000026	2.0	0.0	1.528	pool	wool
227.06600000000003	3.007000000000005	5.0	1.0	1.455	n/a	/BLUEbox.bmp
230.07300000000004	3.4069999999999823	5.0	1.0	1.155	n/a	/BLUEbox.bmp
233.48000000000002	4.408999999999992	2.0	1.0	1.322	fought	drought
237.889	4.007999999999981	3.0	1.0	1.514	flight	spite
241.897	4.409000000000049	3.0	1.0	1.445	scheme	cream
246.30600000000004	4.007999999999981	6.0	1.0	1.407	task-Rhyming/perceptual_z.bmp	task-Rhyming/perceptual_g.bmp
250.31400000000002	4.810000000000002	4.0	1.0	1.344	ghost	pose
255.12400000000002	3.4069999999999823	5.0	1.0	1.366	n/a	/BLUEbox.bmp
258.531	4.007999999999981	4.0	1.0	1.33	grace	fence
262.539	4.0090000000000146	4.0	1.0	1.402	dried	stood
266.548	4.008000000000038	4.0	1.0	1.45	ford	rod
270.55600000000004	4.408999999999992	1.0	1.0	1.4	strap	gap
274.96500000000003	4.810000000000002	6.0	1.0	1.378	task-Rhyming/perceptual_e.bmp	task-Rhyming/perceptual_f.bmp
279.77500000000003	3.005999999999972	5.0	1.0	1.316	n/a	/BLUEbox.bmp
282.781	4.007999999999981	4.0	0.0	1.868	gross	post
286.789	4.008000000000038	4.0	1.0	1.456	fault	note
290.797	4.810000000000002	1.0	1.0	1.209	bull	full
295.607	4.810000000000002	3.0	1.0	1.219	chase	grace
300.41700000000003	4.008999999999958	3.0	1.0	1.346	float	note
304.426	4.809000000000026	3.0	1.0	1.262	bride	dried
309.235	4.810000000000002	4.0	1.0	1.586	thief	plead
314.045	4.408999999999992	1.0	1.0	1.635	bluff	puff
318.454	4.810000000000002	6.0	1.0	1.375	task-Rhyming/perceptual_v.bmp	task-Rhyming/perceptual_w.bmp
323.264	4.810000000000002	1.0	1.0	1.446	shove	glove
328.074	4.408999999999992	6.0	1.0	1.503	task-Rhyming/perceptual_y.bmp	task-Rhyming/perceptual_o.bmp
332.483	4.810000000000002	2.0	0.0	1.507	stamp	swamp
337.293	4.408999999999992	4.0	1.0	1.298	stamp	tomb
341.702	3.0020000000000095	5.0	1.0	1.651	n/a	/BLUEbox.bmp
344.704	22.004999999999995	n/a	n/a	n/a	n/a	/REDbox.bmp
