onset	duration	trial_type	accuracy	response_time	prime_stim	target_stim
0.0	4.007999999999999	2.0	1.0	2.11	post	cost
4.007999999999999	3.0060000000000002	5.0	1.0	0.545	n/a	/BLUEbox.bmp
7.013999999999999	4.408999999999999	6.0	1.0	1.212	task-Rhyming/perceptual_o.bmp	task-Rhyming/perceptual_p.bmp
11.422999999999998	4.008000000000003	3.0	1.0	1.44	rum	numb
15.431000000000001	3.808	5.0	1.0	0.483	n/a	/BLUEbox.bmp
19.239	4.009	6.0	1.0	1.206	task-Rhyming/perceptual_c.bmp	task-Rhyming/perceptual_u.bmp
23.248	4.008000000000003	1.0	1.0	1.259	fought	sought
27.256000000000004	4.007999999999996	1.0	1.0	1.282	scheme	theme
31.264	4.008000000000006	6.0	1.0	1.642	task-Rhyming/perceptual_m.bmp	task-Rhyming/perceptual_n.bmp
35.272000000000006	4.408999999999992	1.0	1.0	1.155	stool	fool
39.681	3.4070000000000107	5.0	1.0	0.595	n/a	/BLUEbox.bmp
43.08800000000001	4.408999999999992	1.0	1.0	0.937	soak	oak
47.497	4.410000000000011	2.0	1.0	1.217	threat	wheat
51.90700000000001	4.007999999999996	1.0	1.0	1.11	thread	spread
55.915000000000006	4.408999999999992	3.0	1.0	1.356	pile	trial
60.324	4.810000000000002	4.0	1.0	1.229	swap	watch
65.134	3.808000000000007	5.0	1.0	0.538	n/a	/BLUEbox.bmp
68.94200000000001	3.4069999999999965	5.0	1.0	0.508	n/a	/BLUEbox.bmp
72.349	4.409000000000006	4.0	1.0	1.097	tough	dull
76.75800000000001	4.809999999999988	6.0	1.0	1.137	task-Rhyming/perceptual_w.bmp	task-Rhyming/perceptual_e.bmp
81.568	4.810000000000002	1.0	1.0	1.139	sweep	creep
86.378	4.8089999999999975	6.0	1.0	1.079	task-Rhyming/perceptual_k.bmp	task-Rhyming/perceptual_t.bmp
91.187	3.4070000000000107	5.0	1.0	0.479	n/a	/BLUEbox.bmp
94.59400000000001	3.4080000000000013	3.0	1.0	0.501	stroke	soak
98.00200000000001	4.408999999999992	4.0	1.0	1.055	trial	fall
102.411	4.8089999999999975	6.0	1.0	1.098	task-Rhyming/perceptual_k.bmp	task-Rhyming/perceptual_l.bmp
107.22	3.007000000000005	5.0	1.0	0.523	n/a	/BLUEbox.bmp
110.227	3.4070000000000107	5.0	1.0	0.391	n/a	/BLUEbox.bmp
113.63400000000001	3.4069999999999823	5.0	1.0	0.443	n/a	/BLUEbox.bmp
117.041	3.4070000000000107	5.0	1.0	0.423	n/a	/BLUEbox.bmp
120.44800000000001	4.00800000000001	1.0	1.0	1.074	beef	reef
124.45600000000002	3.0060000000000002	5.0	1.0	0.433	n/a	/BLUEbox.bmp
127.46200000000002	4.809999999999974	2.0	1.0	1.202	wart	smart
132.272	4.810000000000002	2.0	0.0	1.003	dose	pose
137.082	3.4070000000000107	5.0	1.0	0.437	n/a	/BLUEbox.bmp
140.489	4.00800000000001	2.0	1.0	1.334	touch	couch
144.497	4.008999999999986	6.0	1.0	1.257	task-Rhyming/perceptual_v.bmp	task-Rhyming/perceptual_m.bmp
148.506	3.8070000000000164	5.0	1.0	0.53	n/a	/BLUEbox.bmp
152.31300000000002	3.8079999999999927	5.0	1.0	0.455	n/a	/BLUEbox.bmp
156.121	3.4069999999999823	5.0	1.0	0.441	n/a	/BLUEbox.bmp
159.528	3.0060000000000002	5.0	1.0	0.431	n/a	/BLUEbox.bmp
162.534	3.808000000000021	5.0	1.0	0.399	n/a	/BLUEbox.bmp
166.342	4.408999999999992	4.0	1.0	1.151	port	warm
170.751	4.810000000000002	3.0	1.0	1.123	june	noon
175.561	4.408999999999992	4.0	1.0	1.055	wreath	leap
179.97	3.007000000000005	5.0	1.0	0.571	n/a	/BLUEbox.bmp
182.977	4.408999999999992	6.0	1.0	1.125	task-Rhyming/perceptual_c.bmp	task-Rhyming/perceptual_d.bmp
187.386	4.40900000000002	2.0	1.0	1.862	glove	stove
191.79500000000002	4.809999999999974	1.0	1.0	0.995	numb	crumb
196.605	4.809000000000026	2.0	1.0	1.067	stood	flood
201.41400000000002	4.409999999999997	6.0	1.0	1.085	task-Rhyming/perceptual_i.bmp	task-Rhyming/perceptual_j.bmp
205.824	4.8089999999999975	4.0	1.0	1.041	smart	drought
210.633	4.409999999999997	3.0	1.0	1.25	stir	blur
215.043	3.4070000000000107	5.0	1.0	0.504	n/a	/BLUEbox.bmp
218.45000000000002	3.806999999999988	5.0	1.0	0.419	n/a	/BLUEbox.bmp
222.257	4.810000000000002	2.0	1.0	1.279	pool	wool
227.067	3.0069999999999766	5.0	1.0	0.489	n/a	/BLUEbox.bmp
230.07399999999998	3.407000000000039	5.0	1.0	0.432	n/a	/BLUEbox.bmp
233.48100000000002	4.408999999999992	2.0	1.0	1.39	fought	drought
237.89000000000001	4.007999999999981	3.0	1.0	1.02	flight	spite
241.898	4.408999999999992	3.0	1.0	1.113	scheme	cream
246.307	4.008000000000038	6.0	1.0	1.134	task-Rhyming/perceptual_z.bmp	task-Rhyming/perceptual_g.bmp
250.31500000000003	4.810000000000002	4.0	0.0	1.765	ghost	pose
255.12500000000003	3.406999999999954	5.0	1.0	0.501	n/a	/BLUEbox.bmp
258.532	4.007999999999981	4.0	1.0	1.072	grace	fence
262.53999999999996	4.0090000000000146	4.0	1.0	1.299	dried	stood
266.549	4.007999999999981	4.0	1.0	1.141	ford	rod
270.55699999999996	4.408999999999992	1.0	1.0	1.682	strap	gap
274.96599999999995	4.810000000000002	6.0	1.0	1.099	task-Rhyming/perceptual_e.bmp	task-Rhyming/perceptual_f.bmp
279.77599999999995	3.0060000000000286	5.0	1.0	0.461	n/a	/BLUEbox.bmp
282.782	4.007999999999981	4.0	0.0	1.213	gross	post
286.78999999999996	4.0090000000000146	4.0	1.0	1.125	fault	note
290.799	4.808999999999969	1.0	1.0	1.135	bull	full
295.60799999999995	4.810000000000002	3.0	1.0	1.122	chase	grace
300.41799999999995	4.0090000000000146	3.0	1.0	1.248	float	note
304.42699999999996	4.810000000000002	3.0	1.0	1.935	bride	dried
309.23699999999997	4.809000000000026	4.0	1.0	1.371	thief	plead
314.046	4.409999999999968	1.0	1.0	1.158	bluff	puff
318.45599999999996	4.809000000000026	6.0	1.0	1.16	task-Rhyming/perceptual_v.bmp	task-Rhyming/perceptual_w.bmp
323.265	4.810000000000002	1.0	1.0	1.218	shove	glove
328.075	4.408999999999992	6.0	1.0	1.208	task-Rhyming/perceptual_y.bmp	task-Rhyming/perceptual_o.bmp
332.484	4.810000000000002	2.0	1.0	1.328	stamp	swamp
337.294	4.408999999999992	4.0	1.0	1.283	stamp	tomb
341.703	3.0020000000000095	5.0	1.0	0.712	n/a	/BLUEbox.bmp
344.705	22.005999999999972	n/a	n/a	n/a	n/a	/REDbox.bmp
